sep=,
DeviceTag:,Xsens
FirmwareVersion:,3.0.0
AppVersion:,2023.6.0
SyncStatus:,Un-synced
OutputRate:,60Hz
FilterProfile:,General
Measurement Mode:,Sensor fusion Mode - Complete(Quaternion)
StartTime: ,2024-04-03_10:37:15_065 CEST
© Movella Technologies B. V. 2005-2024

PacketCounter,SampleTimeFine,Quat_W,Quat_X,Quat_Y,Quat_Z,FreeAcc_X,FreeAcc_Y,FreeAcc_Z
1,151143284,0.929995,-0.036322,-0.049887,0.362354,0.054610,0.051648,0.193995
2,151159951,0.929844,-0.035860,-0.050241,0.362739,-0.132729,-0.094708,0.287994
3,151176618,0.929810,-0.035636,-0.049401,0.362965,-0.087811,-0.187719,0.228439
4,151193285,0.929863,-0.036227,-0.048163,0.362936,0.020620,-0.060369,0.242188
5,151209952,0.929848,-0.036330,-0.047972,0.362989,0.046596,0.019172,0.264452
6,151226619,0.929949,-0.036209,-0.048152,0.362719,0.112328,0.080248,0.250720
7,151243286,0.929957,-0.035784,-0.048523,0.362691,0.034982,0.072889,0.276731
8,151259953,0.930077,-0.035330,-0.048989,0.362366,0.023983,0.035809,0.263910
9,151276620,0.930056,-0.034857,-0.049336,0.362419,-0.000784,-0.021650,0.228770
10,151293287,0.930059,-0.034438,-0.049777,0.362390,-0.016327,-0.025933,0.281605
11,151309954,0.930103,-0.033951,-0.050129,0.362275,0.000559,-0.038479,0.245065
12,151326621,0.930062,-0.033581,-0.050586,0.362350,0.035452,-0.014782,0.281701
13,151343288,0.930126,-0.033152,-0.050895,0.362184,0.080681,0.010303,0.240088
14,151359955,0.930115,-0.032885,-0.051225,0.362190,0.088619,-0.001221,0.202923
15,151376622,0.930172,-0.032521,-0.051215,0.362077,0.061516,-0.060497,0.255931
16,151393289,0.930184,-0.032191,-0.051290,0.362065,-0.074916,-0.091734,0.309730
17,151409956,0.930171,-0.031927,-0.051518,0.362089,-0.047638,-0.150753,0.263144
18,151426623,0.930140,-0.031569,-0.051683,0.362178,-0.088717,-0.150044,0.314883
19,151443290,0.930080,-0.031195,-0.052026,0.362315,-0.086376,-0.165557,0.305390
20,151459957,0.930017,-0.030854,-0.052464,0.362443,0.007529,-0.150245,0.261002
21,151476624,0.930028,-0.030404,-0.052751,0.362410,0.060132,-0.112068,0.252302
22,151493291,0.929986,-0.029936,-0.052943,0.362528,-0.004175,-0.085236,0.236334
23,151509958,0.929981,-0.029490,-0.053162,0.362546,-0.016179,-0.078370,0.232088
24,151526625,0.929965,-0.029103,-0.053398,0.362585,-0.059577,-0.079903,0.259823
25,151543292,0.929926,-0.028781,-0.053724,0.362663,-0.026749,-0.103781,0.248170
26,151559959,0.929982,-0.028408,-0.053959,0.362512,-0.028470,-0.130441,0.248864
27,151576626,0.929941,-0.028077,-0.054277,0.362595,-0.052974,-0.115834,0.286370
28,151593293,0.929913,-0.027757,-0.054566,0.362648,-0.013813,-0.111759,0.275805
29,151609960,0.929898,-0.027534,-0.054825,0.362665,-0.018324,-0.110255,0.279108
30,151626627,0.929900,-0.027296,-0.055062,0.362641,0.012371,-0.156206,0.275047
31,151643294,0.929907,-0.027102,-0.055246,0.362611,0.011712,-0.173909,0.282219
32,151659961,0.929908,-0.026868,-0.055385,0.362605,0.032219,-0.176860,0.266589
33,151676628,0.929974,-0.026551,-0.055461,0.362448,0.000825,-0.175418,0.203667
34,151693295,0.929959,-0.026262,-0.055499,0.362500,-0.032210,-0.194037,0.239326
35,151709962,0.929920,-0.025872,-0.055483,0.362632,-0.097182,-0.182928,0.247953
36,151726629,0.929839,-0.025719,-0.055755,0.362807,-0.110150,-0.221759,0.243812
37,151743296,0.929777,-0.025595,-0.056037,0.362933,0.017634,-0.260586,0.250844
38,151759963,0.929743,-0.025329,-0.056187,0.363015,0.047945,-0.255969,0.281215
39,151776630,0.929691,-0.024995,-0.056159,0.363174,0.025326,-0.227066,0.280046
40,151793297,0.929679,-0.024741,-0.056131,0.363228,-0.037634,-0.204634,0.266823
41,151809964,0.929668,-0.024542,-0.056143,0.363267,-0.018976,-0.238483,0.235524
42,151826631,0.929666,-0.024303,-0.056099,0.363295,-0.044171,-0.240897,0.218255
43,151843298,0.929649,-0.024109,-0.056115,0.363349,-0.061171,-0.246265,0.243712
44,151859965,0.929618,-0.023882,-0.056128,0.363440,-0.071743,-0.255479,0.243337
45,151876632,0.929559,-0.023752,-0.056245,0.363582,-0.082347,-0.271734,0.274648
46,151893299,0.929474,-0.023575,-0.056405,0.363786,-0.008306,-0.312578,0.253283
47,151909966,0.929433,-0.023369,-0.056560,0.363882,0.026676,-0.354454,0.280818
48,151926633,0.929444,-0.023124,-0.056742,0.363839,0.064645,-0.345755,0.243447
49,151943300,0.929464,-0.022768,-0.056765,0.363808,0.050990,-0.351875,0.244580
50,151959967,0.929447,-0.022442,-0.056822,0.363863,0.046380,-0.350552,0.262996
51,151976634,0.929375,-0.022010,-0.056827,0.364072,0.073431,-0.357952,0.247252
52,151993301,0.929249,-0.021520,-0.056767,0.364434,0.052066,-0.344947,0.265256
53,152009968,0.929109,-0.021062,-0.056705,0.364825,0.033045,-0.325357,0.227453
54,152026635,0.929041,-0.020608,-0.056511,0.365054,0.034029,-0.342332,0.218685
55,152043302,0.929009,-0.020182,-0.056251,0.365200,-0.078634,-0.297299,0.245173
56,152059969,0.929006,-0.019870,-0.056133,0.365243,-0.097178,-0.345894,0.256634
57,152076636,0.928984,-0.019535,-0.056008,0.365335,-0.134262,-0.368511,0.255634
58,152093303,0.928916,-0.019240,-0.056120,0.365507,-0.130269,-0.370340,0.248901
59,152109970,0.928876,-0.018982,-0.056315,0.365592,-0.073303,-0.376462,0.267786
60,152126637,0.928853,-0.018717,-0.056551,0.365628,-0.061390,-0.387804,0.277575
61,152143304,0.928836,-0.018406,-0.056831,0.365644,0.000895,-0.383780,0.232611
62,152159971,0.928832,-0.018089,-0.056989,0.365646,0.030702,-0.373269,0.238571
63,152176638,0.928840,-0.017672,-0.057011,0.365643,-0.034881,-0.352791,0.248375
64,152193305,0.928848,-0.017377,-0.057057,0.365627,-0.042107,-0.367456,0.268257
65,152209972,0.928868,-0.017010,-0.056989,0.365605,-0.069869,-0.387865,0.257222
66,152226639,0.928881,-0.016670,-0.056945,0.365595,-0.130409,-0.358810,0.291796
67,152243306,0.928866,-0.016459,-0.057029,0.365628,-0.149697,-0.400106,0.305559
68,152259973,0.928813,-0.016245,-0.057288,0.365732,-0.087938,-0.427188,0.275118
69,152276640,0.928776,-0.015933,-0.057475,0.365813,-0.069785,-0.413006,0.253633
70,152293307,0.928725,-0.015616,-0.057676,0.365922,-0.045665,-0.419757,0.226914
71,152309974,0.928703,-0.015191,-0.057782,0.365981,-0.081938,-0.401603,0.212554
72,152326641,0.928647,-0.014902,-0.057952,0.366107,-0.097339,-0.418848,0.254507
73,152343308,0.928544,-0.014578,-0.058204,0.366341,-0.071864,-0.440759,0.247340
74,152359975,0.928446,-0.014275,-0.058510,0.366553,-0.037613,-0.500705,0.243210
75,152376642,0.928402,-0.013957,-0.058821,0.366627,0.039887,-0.552723,0.263502
76,152393309,0.928465,-0.013252,-0.058902,0.366481,0.047515,-0.472375,0.241520
77,152409976,0.928556,-0.012649,-0.058773,0.366292,-0.119721,-0.273682,0.300687
78,152426643,0.928540,-0.012509,-0.058808,0.366331,-0.139303,-0.279927,0.287774
79,152443310,0.928426,-0.012708,-0.058980,0.366586,-0.025304,-0.414802,0.279536
80,152459977,0.928289,-0.012732,-0.059033,0.366923,0.112735,-0.541701,0.233425
81,152476644,0.928206,-0.012496,-0.058883,0.367165,0.071022,-0.516723,0.176483
82,152493311,0.928157,-0.012277,-0.058542,0.367350,-0.023894,-0.416900,0.202027
83,152509978,0.928081,-0.012379,-0.058373,0.367567,-0.039676,-0.479905,0.274535
84,152526645,0.928016,-0.012415,-0.058184,0.367759,0.022331,-0.623152,0.275556
85,152543312,0.928010,-0.012212,-0.057919,0.367822,-0.028798,-0.609101,0.262328
86,152559979,0.928035,-0.011913,-0.057656,0.367811,-0.061585,-0.517026,0.274855
87,152576646,0.927996,-0.011707,-0.057388,0.367959,-0.115416,-0.504610,0.279121
88,152593313,0.927881,-0.011646,-0.057434,0.368243,-0.043330,-0.559996,0.262256
89,152609980,0.927820,-0.011464,-0.057446,0.368401,0.078500,-0.567058,0.187877
90,152626647,0.927851,-0.011097,-0.057142,0.368381,0.049891,-0.485217,0.152020
91,152643314,0.927889,-0.010867,-0.056694,0.368362,-0.056418,-0.382873,0.227532
92,152659981,0.927846,-0.010852,-0.056286,0.368533,-0.097310,-0.461710,0.239618
93,152676648,0.927745,-0.011008,-0.056042,0.368819,-0.066156,-0.581857,0.312968
94,152693315,0.927661,-0.010901,-0.055910,0.369053,0.023854,-0.611778,0.266418
95,152709982,0.927645,-0.010623,-0.055497,0.369165,-0.018015,-0.479137,0.258574
96,152726649,0.927609,-0.010451,-0.055033,0.369329,-0.125637,-0.405238,0.276282
97,152743316,0.927427,-0.010635,-0.054721,0.369828,-0.131256,-0.445792,0.304799
98,152759983,0.927160,-0.010925,-0.054679,0.370494,0.003999,-0.621584,0.287556
99,152776650,0.926987,-0.011007,-0.054528,0.370946,0.130060,-0.605644,0.165795
100,152793317,0.926952,-0.010839,-0.053871,0.371135,0.059600,-0.485364,0.192059
101,152809984,0.926931,-0.010852,-0.053069,0.371302,-0.099250,-0.437196,0.240803
102,152826651,0.926843,-0.011084,-0.052308,0.371622,-0.164461,-0.524043,0.266842
103,152843318,0.926720,-0.011458,-0.051855,0.371981,-0.129568,-0.726784,0.337145
104,152859985,0.926657,-0.011469,-0.051607,0.372171,0.001162,-0.721522,0.227222
105,152876652,0.926674,-0.011280,-0.051055,0.372212,-0.105854,-0.600835,0.234822
106,152893319,0.926641,-0.011278,-0.050674,0.372346,-0.199990,-0.572881,0.267518
107,152909986,0.926553,-0.011574,-0.050666,0.372557,-0.072302,-0.728261,0.251629
108,152926653,0.926534,-0.011487,-0.050584,0.372618,0.068397,-0.682516,0.216198
109,152943320,0.926653,-0.011356,-0.050231,0.372373,0.060584,-0.604310,0.234689
110,152959987,0.926820,-0.011028,-0.049482,0.372069,-0.077850,-0.507431,0.191031
111,152976654,0.926849,-0.010919,-0.048665,0.372107,-0.255231,-0.472129,0.297653
112,152993321,0.926715,-0.011389,-0.048475,0.372450,-0.228712,-0.682519,0.325628
113,153009988,0.926573,-0.011712,-0.048847,0.372747,0.024513,-0.786669,0.205160
114,153026655,0.926557,-0.011737,-0.048793,0.372791,0.141154,-0.749640,0.162303
115,153043322,0.926636,-0.011234,-0.048058,0.372707,-0.008586,-0.559932,0.194321
116,153059989,0.926646,-0.011141,-0.047233,0.372791,-0.223077,-0.514426,0.275805
117,153076656,0.926519,-0.011586,-0.047010,0.373120,-0.218072,-0.678725,0.330873
118,153093323,0.926380,-0.011956,-0.047206,0.373427,-0.012692,-0.797791,0.277775
119,153109990,0.926388,-0.012004,-0.047219,0.373405,0.099441,-0.765041,0.217751
120,153126657,0.926521,-0.011703,-0.046731,0.373145,0.044173,-0.591883,0.184106
121,153143324,0.926615,-0.011465,-0.045914,0.373021,-0.159203,-0.474481,0.196344
122,153159991,0.926563,-0.011803,-0.045406,0.373201,-0.240261,-0.587278,0.283757
123,153176658,0.926435,-0.012179,-0.045596,0.373485,-0.017418,-0.727459,0.235957
124,153193325,0.926391,-0.012206,-0.045216,0.373638,0.044029,-0.688793,0.199751
125,153209992,0.926380,-0.011962,-0.044634,0.373745,-0.145729,-0.559242,0.262771
126,153226659,0.926277,-0.012192,-0.044316,0.374029,-0.208700,-0.583887,0.299541
127,153243326,0.926100,-0.012569,-0.044356,0.374451,-0.078764,-0.705963,0.313869
128,153259993,0.925958,-0.012630,-0.044246,0.374812,-0.005283,-0.807902,0.252435
129,153276660,0.925880,-0.012474,-0.044017,0.375038,-0.072178,-0.670289,0.246670
130,153293327,0.925776,-0.012461,-0.043833,0.375317,-0.135377,-0.595470,0.244454
131,153309994,0.925605,-0.012743,-0.043749,0.375737,-0.112970,-0.730121,0.247086
132,153326661,0.925401,-0.012750,-0.043890,0.376225,-0.007458,-0.843321,0.267284
133,153343328,0.925281,-0.012602,-0.044005,0.376511,0.088536,-0.720360,0.179162
134,153359995,0.925249,-0.012262,-0.043711,0.376633,0.018872,-0.574383,0.161321
135,153376662,0.925214,-0.012381,-0.043357,0.376757,-0.094401,-0.526990,0.245682
136,153393329,0.925129,-0.012741,-0.043042,0.376990,-0.056027,-0.680360,0.257155
137,153409996,0.925031,-0.012946,-0.042645,0.377269,-0.070169,-0.838756,0.275219
138,153426663,0.924966,-0.013006,-0.042507,0.377441,-0.090339,-0.862170,0.338849
139,153443330,0.924932,-0.012781,-0.042600,0.377521,-0.021763,-0.807331,0.246196
140,153459997,0.924858,-0.012502,-0.042542,0.377719,-0.041909,-0.695354,0.223889
141,153476664,0.924695,-0.012301,-0.042628,0.378114,-0.032186,-0.663228,0.201317
142,153493331,0.924497,-0.012186,-0.042543,0.378611,0.020807,-0.654940,0.188354
143,153509998,0.924346,-0.011983,-0.042244,0.379021,-0.037338,-0.597372,0.197432
144,153526665,0.924230,-0.012121,-0.041958,0.379330,-0.036230,-0.630814,0.244122
145,153543332,0.924135,-0.012067,-0.041389,0.379626,-0.060047,-0.656003,0.239824
146,153559999,0.924030,-0.012084,-0.040979,0.379924,-0.140396,-0.697441,0.320598
147,153576666,0.923931,-0.012162,-0.040801,0.380183,-0.055220,-0.688745,0.275726
148,153593333,0.923905,-0.012127,-0.040406,0.380289,-0.045003,-0.602619,0.253926
149,153610000,0.923898,-0.012280,-0.039973,0.380346,-0.084605,-0.562245,0.237730
150,153626667,0.923883,-0.012547,-0.039476,0.380427,-0.105862,-0.595223,0.237048
151,153643334,0.923815,-0.012872,-0.039002,0.380629,-0.113940,-0.648218,0.245998
152,153660001,0.923683,-0.013258,-0.038679,0.380970,-0.058323,-0.764815,0.238376
153,153676668,0.923564,-0.013348,-0.038419,0.381281,-0.024727,-0.766373,0.273430
154,153693335,0.923487,-0.013428,-0.038099,0.381496,0.026967,-0.708946,0.216593
155,153710002,0.923401,-0.013358,-0.037517,0.381766,-0.040155,-0.622611,0.190572
156,153726669,0.923244,-0.013440,-0.036759,0.382217,-0.132868,-0.653503,0.224838
157,153743336,0.923038,-0.013669,-0.036279,0.382751,-0.160995,-0.759451,0.272291
158,153760003,0.922887,-0.013849,-0.036095,0.383125,-0.088950,-0.857930,0.233013
159,153776670,0.922832,-0.013659,-0.035856,0.383288,-0.119530,-0.725336,0.233997
160,153793337,0.922776,-0.013637,-0.035703,0.383436,-0.156005,-0.634603,0.274577
161,153810004,0.922655,-0.013879,-0.035794,0.383710,-0.064409,-0.580367,0.246995
162,153826671,0.922500,-0.014348,-0.035563,0.384087,0.015924,-0.609692,0.254285
163,153843338,0.922382,-0.014701,-0.035046,0.384404,-0.038115,-0.741977,0.222985
164,153860005,0.922329,-0.014875,-0.034443,0.384579,-0.205353,-0.852475,0.297995
165,153876672,0.922327,-0.015047,-0.034850,0.384540,-0.096819,-0.729910,0.275201
166,153893339,0.922299,-0.015431,-0.034863,0.384593,0.077425,-0.625526,0.196044
167,153910006,0.922247,-0.015665,-0.034441,0.384745,0.037171,-0.656888,0.226501
168,153926673,0.922177,-0.015994,-0.033931,0.384945,0.022008,-0.672844,0.244403
169,153943340,0.922087,-0.016237,-0.033421,0.385195,-0.003072,-0.739489,0.234313
170,153960007,0.921956,-0.016364,-0.032862,0.385550,-0.020574,-0.688908,0.233334
171,153976674,0.921777,-0.016517,-0.032281,0.386020,-0.091743,-0.726643,0.226447
172,153993341,0.921595,-0.016712,-0.031913,0.386478,-0.072946,-0.694725,0.295930
173,154010008,0.921498,-0.017031,-0.031408,0.386736,-0.051290,-0.704722,0.255864
174,154026675,0.921464,-0.017334,-0.030842,0.386850,-0.120972,-0.810299,0.282996
175,154043342,0.921454,-0.017434,-0.030440,0.386900,-0.163669,-0.709162,0.251581
176,154060009,0.921374,-0.017767,-0.030160,0.387097,-0.159381,-0.721307,0.291948
177,154076676,0.921231,-0.018099,-0.030152,0.387423,-0.035611,-0.795704,0.253465
178,154093343,0.921132,-0.018153,-0.029938,0.387673,-0.007749,-0.802204,0.223747
179,154110010,0.921100,-0.018061,-0.029837,0.387760,-0.093857,-0.742628,0.196472
180,154126677,0.921096,-0.018192,-0.029809,0.387766,-0.069932,-0.660389,0.172869
181,154143344,0.921058,-0.018209,-0.029547,0.387876,-0.077450,-0.619198,0.223330
182,154160011,0.920950,-0.018473,-0.029307,0.388137,-0.119320,-0.766969,0.298724
183,154176678,0.920884,-0.018480,-0.029410,0.388286,-0.067092,-0.776614,0.287682
184,154193345,0.920926,-0.018488,-0.029389,0.388188,-0.020393,-0.746367,0.255673
185,154210012,0.921057,-0.018302,-0.029235,0.387898,-0.114156,-0.672298,0.254986
186,154226679,0.921180,-0.018368,-0.029219,0.387604,-0.163607,-0.629841,0.265588
187,154243346,0.921232,-0.018617,-0.029307,0.387461,-0.069276,-0.669378,0.230755
188,154260013,0.921240,-0.018698,-0.029348,0.387436,-0.065995,-0.718056,0.251788
189,154276680,0.921244,-0.018889,-0.029563,0.387400,0.049735,-0.720752,0.193855
190,154293347,0.921288,-0.018808,-0.029407,0.387311,0.080173,-0.708829,0.186131
191,154310014,0.921393,-0.018587,-0.028999,0.387102,-0.057766,-0.604964,0.186448
192,154326681,0.921443,-0.018657,-0.028655,0.387007,-0.163302,-0.529805,0.247860
193,154343348,0.921406,-0.019058,-0.028456,0.387089,-0.177946,-0.677379,0.284522
194,154360015,0.921317,-0.019308,-0.028443,0.387291,-0.129333,-0.799681,0.300942
195,154376682,0.921255,-0.019438,-0.028728,0.387410,-0.056403,-0.772773,0.299474
196,154393349,0.921237,-0.019422,-0.029065,0.387430,0.079467,-0.676813,0.228304
197,154410016,0.921248,-0.019229,-0.028688,0.387440,-0.031990,-0.570968,0.195700
198,154426683,0.921205,-0.019146,-0.028636,0.387550,-0.188066,-0.559023,0.284656
199,154443350,0.921128,-0.019599,-0.029018,0.387682,-0.015774,-0.564117,0.219897
200,154460017,0.921099,-0.019711,-0.028899,0.387754,0.046838,-0.619212,0.193076
201,154476684,0.921142,-0.019883,-0.028780,0.387653,-0.066138,-0.606117,0.260170
202,154493351,0.921186,-0.020135,-0.028691,0.387540,0.006118,-0.610174,0.212753
203,154510018,0.921194,-0.020211,-0.028381,0.387539,-0.098273,-0.640146,0.274869
204,154526685,0.921149,-0.020502,-0.028401,0.387631,-0.055101,-0.643980,0.264858
205,154543352,0.921119,-0.020714,-0.028395,0.387690,-0.004701,-0.720879,0.250101
206,154560019,0.921154,-0.020762,-0.028335,0.387609,-0.003836,-0.732641,0.225921
207,154576686,0.921251,-0.020655,-0.028285,0.387388,-0.085766,-0.657890,0.243937
208,154593353,0.921319,-0.020646,-0.028394,0.387220,-0.124630,-0.651432,0.280437
209,154610020,0.921297,-0.020692,-0.028654,0.387252,-0.118108,-0.638128,0.259741
210,154626687,0.921217,-0.020706,-0.028919,0.387421,-0.104193,-0.701401,0.229058
211,154643354,0.921151,-0.020780,-0.029347,0.387542,-0.052906,-0.726732,0.246767
212,154660021,0.921156,-0.020715,-0.029750,0.387501,0.028771,-0.670884,0.223053
213,154676688,0.921205,-0.020663,-0.029883,0.387377,0.044868,-0.599817,0.185185
214,154693355,0.921257,-0.020665,-0.029789,0.387260,-0.017398,-0.551674,0.232079
215,154710022,0.921272,-0.020880,-0.029690,0.387221,-0.017193,-0.596580,0.284725
216,154726689,0.921325,-0.020923,-0.029567,0.387102,-0.019433,-0.669248,0.291572
217,154743356,0.921418,-0.021041,-0.029522,0.386879,-0.032749,-0.575231,0.244547
218,154760023,0.921529,-0.021133,-0.029385,0.386619,-0.017232,-0.547501,0.224181
219,154776690,0.921576,-0.021359,-0.029075,0.386519,-0.072671,-0.522853,0.226039
220,154793357,0.921538,-0.021715,-0.028977,0.386596,-0.061530,-0.622158,0.294777
221,154810024,0.921500,-0.021921,-0.028895,0.386681,0.016141,-0.686462,0.261336
222,154826691,0.921533,-0.021955,-0.028746,0.386611,-0.002303,-0.645805,0.242046
223,154843358,0.921617,-0.022055,-0.028681,0.386411,0.013377,-0.567472,0.219601
224,154860025,0.921747,-0.022065,-0.028316,0.386127,-0.023156,-0.572477,0.215325
225,154876692,0.921829,-0.022178,-0.028057,0.385943,-0.108025,-0.542698,0.326358
226,154893359,0.921871,-0.022358,-0.027982,0.385838,-0.060479,-0.629236,0.258325
227,154910026,0.921890,-0.022400,-0.027868,0.385799,-0.046321,-0.584423,0.230326
228,154926693,0.921915,-0.022443,-0.027735,0.385745,-0.044747,-0.571496,0.202691
229,154943360,0.921942,-0.022544,-0.027527,0.385691,-0.116031,-0.549680,0.265264
230,154960027,0.921943,-0.022759,-0.027507,0.385677,-0.084581,-0.616850,0.269139
231,154976694,0.921956,-0.022919,-0.027394,0.385644,-0.073812,-0.593319,0.268696
232,154993361,0.921970,-0.023220,-0.027476,0.385587,-0.007435,-0.657932,0.284328
233,155010028,0.922057,-0.023324,-0.027483,0.385371,0.068170,-0.620926,0.228610
234,155026695,0.922192,-0.023276,-0.027237,0.385069,0.012665,-0.515689,0.249125
235,155043362,0.922302,-0.023262,-0.026945,0.384828,-0.059874,-0.477409,0.245392
236,155060029,0.922345,-0.023452,-0.026628,0.384735,-0.123517,-0.456432,0.234366
237,155076696,0.922346,-0.023813,-0.026574,0.384714,-0.111212,-0.562502,0.238690
238,155093363,0.922342,-0.024194,-0.026574,0.384699,0.010262,-0.634396,0.226721
239,155110030,0.922370,-0.024400,-0.026573,0.384619,0.053809,-0.656977,0.228330
240,155126697,0.922437,-0.024446,-0.026356,0.384471,0.023408,-0.630678,0.241142
241,155143364,0.922511,-0.024394,-0.026063,0.384317,-0.085052,-0.511031,0.266724
242,155160031,0.922515,-0.024568,-0.025944,0.384304,-0.086125,-0.542528,0.255724
243,155176698,0.922500,-0.024801,-0.025861,0.384331,-0.042231,-0.592076,0.255019
244,155193365,0.922510,-0.024976,-0.025747,0.384303,0.002517,-0.599012,0.241144
245,155210032,0.922556,-0.025039,-0.025544,0.384202,-0.021509,-0.621935,0.240405
246,155226699,0.922625,-0.025002,-0.025352,0.384053,-0.078137,-0.583717,0.252707
247,155243366,0.922626,-0.024922,-0.025208,0.384063,-0.136500,-0.535736,0.234288
248,155260033,0.922586,-0.025051,-0.025306,0.384144,-0.119500,-0.538239,0.220931
249,155276700,0.922565,-0.025276,-0.025463,0.384171,-0.007656,-0.575410,0.224247
250,155293367,0.922613,-0.025409,-0.025460,0.384047,0.020027,-0.631209,0.285341
251,155310034,0.922719,-0.025418,-0.025405,0.383796,-0.002302,-0.597736,0.279823
252,155326701,0.922801,-0.025272,-0.025220,0.383619,-0.078003,-0.523164,0.274549
253,155343368,0.922780,-0.025277,-0.025126,0.383676,-0.158413,-0.504184,0.288976
254,155360035,0.922702,-0.025444,-0.025369,0.383836,-0.043556,-0.563807,0.220183
255,155376702,0.922670,-0.025436,-0.025417,0.383911,0.018249,-0.557305,0.210780
256,155393369,0.922687,-0.025369,-0.025453,0.383871,0.004005,-0.494311,0.200768
257,155410036,0.922736,-0.025379,-0.025325,0.383763,-0.008144,-0.488008,0.217457
258,155426703,0.922746,-0.025375,-0.025180,0.383747,-0.062544,-0.475269,0.249465
259,155443370,0.922758,-0.025430,-0.025091,0.383720,-0.105976,-0.519076,0.301126
260,155460037,0.922771,-0.025488,-0.025159,0.383681,-0.071647,-0.515091,0.308049
261,155476704,0.922809,-0.025546,-0.025242,0.383580,-0.005877,-0.512586,0.268168
262,155493371,0.922880,-0.025581,-0.025213,0.383409,0.016478,-0.456538,0.253954
263,155510038,0.922937,-0.025503,-0.024980,0.383293,-0.068191,-0.420501,0.240172
264,155526705,0.922905,-0.025676,-0.024886,0.383363,-0.136719,-0.420908,0.287775
265,155543372,0.922800,-0.025901,-0.025089,0.383589,-0.019362,-0.518141,0.233951
266,155560039,0.922733,-0.026014,-0.025103,0.383740,0.059685,-0.509747,0.219464
267,155576706,0.922728,-0.026002,-0.025008,0.383761,0.044833,-0.490798,0.245856
268,155593373,0.922751,-0.026020,-0.024717,0.383721,-0.048655,-0.445884,0.238860
269,155610040,0.922741,-0.026134,-0.024504,0.383752,-0.133565,-0.441277,0.278734
270,155626707,0.922675,-0.026364,-0.024534,0.383893,-0.100498,-0.526785,0.267355
271,155643374,0.922637,-0.026496,-0.024638,0.383969,-0.023091,-0.563084,0.242172
272,155660041,0.922667,-0.026600,-0.024816,0.383879,0.049260,-0.522984,0.233297
273,155676708,0.922744,-0.026535,-0.024736,0.383704,0.015997,-0.446921,0.233970
274,155693375,0.922784,-0.026595,-0.024639,0.383609,-0.046256,-0.428096,0.252185
275,155710042,0.922760,-0.026735,-0.024633,0.383656,-0.008641,-0.473574,0.263404
276,155726709,0.922743,-0.026733,-0.024500,0.383707,0.003984,-0.468330,0.259622
277,155743376,0.922725,-0.026760,-0.024314,0.383759,-0.088727,-0.385007,0.255550
278,155760043,0.922688,-0.027016,-0.024238,0.383836,-0.048044,-0.409507,0.263358
279,155776710,0.922638,-0.027234,-0.024033,0.383952,-0.052382,-0.410510,0.258548
280,155793377,0.922576,-0.027598,-0.023973,0.384079,-0.031882,-0.494190,0.315648
281,155810044,0.922534,-0.027826,-0.023855,0.384171,0.022452,-0.521455,0.288675
282,155826711,0.922528,-0.027962,-0.023722,0.384185,0.032431,-0.509287,0.276169
283,155843378,0.922537,-0.027935,-0.023423,0.384182,-0.035884,-0.444529,0.281287
284,155860045,0.922524,-0.028046,-0.023265,0.384216,-0.074662,-0.422013,0.275680
285,155876712,0.922456,-0.028238,-0.023212,0.384367,-0.012753,-0.418740,0.186095
286,155893379,0.922383,-0.028495,-0.023061,0.384533,0.031627,-0.473569,0.254686
287,155910046,0.922347,-0.028618,-0.022811,0.384625,0.049918,-0.527780,0.272834
288,155926713,0.922382,-0.028639,-0.022523,0.384557,0.002861,-0.514110,0.255631
289,155943380,0.922446,-0.028627,-0.022218,0.384423,-0.070603,-0.484733,0.304494
290,155960047,0.922484,-0.028644,-0.021991,0.384343,-0.107621,-0.459495,0.327854
291,155976714,0.922471,-0.028789,-0.022005,0.384362,-0.091880,-0.485673,0.283733
292,155993381,0.922463,-0.028812,-0.022075,0.384376,0.018381,-0.449471,0.252377
293,156010048,0.922482,-0.028810,-0.022002,0.384335,0.065636,-0.399274,0.191059
294,156026715,0.922531,-0.028779,-0.021665,0.384237,-0.013209,-0.339690,0.228290
295,156043382,0.922552,-0.028868,-0.021342,0.384198,-0.092691,-0.344516,0.235345
296,156060049,0.922525,-0.029070,-0.021119,0.384262,-0.098267,-0.370600,0.271129
297,156076716,0.922484,-0.029298,-0.021052,0.384347,-0.064708,-0.418346,0.296144
298,156093383,0.922459,-0.029467,-0.020981,0.384397,0.002093,-0.410420,0.277160
299,156110050,0.922467,-0.029635,-0.020830,0.384374,0.010763,-0.384228,0.259042
300,156126717,0.922467,-0.029793,-0.020485,0.384380,-0.050187,-0.344076,0.265014
301,156143384,0.922409,-0.030116,-0.020233,0.384506,-0.088514,-0.380407,0.280192
302,156160051,0.922362,-0.030454,-0.020113,0.384599,-0.016694,-0.479649,0.273080
303,156176718,0.922376,-0.030604,-0.019919,0.384563,-0.028877,-0.479449,0.264953
304,156193385,0.922452,-0.030716,-0.019774,0.384380,-0.051658,-0.454440,0.275010
305,156210052,0.922503,-0.030696,-0.019489,0.384273,-0.138977,-0.391881,0.205271
306,156226719,0.922462,-0.030947,-0.019518,0.384350,-0.163970,-0.438409,0.297335
307,156243386,0.922403,-0.031101,-0.019613,0.384475,-0.054410,-0.434067,0.210836
308,156260053,0.922393,-0.031422,-0.019702,0.384468,-0.034051,-0.438866,0.267654
309,156276720,0.922463,-0.031659,-0.019743,0.384278,0.021220,-0.498839,0.251659
310,156293387,0.922548,-0.031675,-0.019554,0.384083,-0.035798,-0.455022,0.283153
311,156310054,0.922564,-0.031792,-0.019559,0.384035,-0.076722,-0.450562,0.316322
312,156326721,0.922549,-0.031784,-0.019594,0.384071,-0.021560,-0.428631,0.268654
313,156343388,0.922577,-0.031833,-0.019584,0.383999,-0.031483,-0.386061,0.239772
314,156360055,0.922673,-0.031905,-0.019526,0.383765,-0.013732,-0.360188,0.188275
315,156376722,0.922767,-0.032002,-0.019280,0.383544,-0.107159,-0.343725,0.211989
316,156393389,0.922751,-0.032269,-0.019262,0.383559,-0.130991,-0.395088,0.276826
317,156410056,0.922684,-0.032513,-0.019350,0.383696,-0.051513,-0.474440,0.255318
318,156426723,0.922623,-0.032663,-0.019530,0.383820,0.012460,-0.470094,0.303335
319,156443390,0.922624,-0.032675,-0.019671,0.383811,0.081943,-0.413957,0.249692
320,156460057,0.922676,-0.032653,-0.019513,0.383697,0.010597,-0.313529,0.269452
321,156476724,0.922721,-0.032739,-0.019379,0.383587,-0.023949,-0.321654,0.260207
322,156493391,0.922717,-0.032805,-0.019193,0.383600,-0.071194,-0.364081,0.276780
323,156510058,0.922678,-0.032944,-0.019140,0.383685,-0.058355,-0.416591,0.265020
324,156526725,0.922642,-0.033034,-0.019194,0.383761,-0.025306,-0.441005,0.251120
325,156543392,0.922637,-0.033015,-0.019174,0.383776,-0.013523,-0.411929,0.228916
326,156560059,0.922648,-0.033062,-0.019230,0.383741,-0.039501,-0.417901,0.298202
327,156576726,0.922679,-0.032999,-0.019272,0.383671,-0.003581,-0.363150,0.252264
328,156593393,0.922717,-0.033009,-0.019237,0.383581,-0.022163,-0.330539,0.257879
329,156610060,0.922774,-0.033059,-0.019244,0.383438,-0.010052,-0.325217,0.278584
330,156626727,0.922855,-0.033110,-0.019183,0.383242,-0.034853,-0.323563,0.278312
331,156643394,0.922951,-0.033233,-0.019173,0.383001,-0.044246,-0.353269,0.278229
332,156660061,0.923002,-0.033280,-0.019143,0.382876,-0.052938,-0.301406,0.285477
333,156676728,0.922988,-0.033381,-0.019125,0.382901,-0.078912,-0.333575,0.269034
334,156693395,0.922919,-0.033582,-0.019254,0.383043,0.013462,-0.331403,0.253273
335,156710062,0.922862,-0.033761,-0.019262,0.383165,0.061820,-0.349252,0.232187
336,156726729,0.922851,-0.033900,-0.019141,0.383184,0.057696,-0.353388,0.267482
337,156743396,0.922895,-0.033981,-0.018876,0.383084,0.014146,-0.372522,0.251049
338,156760063,0.922933,-0.033994,-0.018592,0.383006,-0.077915,-0.387954,0.309902
339,156776730,0.922946,-0.034000,-0.018516,0.382977,-0.117081,-0.361919,0.313424
340,156793397,0.922935,-0.034106,-0.018687,0.382986,-0.019558,-0.338686,0.255965
341,156810064,0.922912,-0.034145,-0.018730,0.383038,0.054295,-0.314893,0.246115
342,156826731,0.922927,-0.034225,-0.018699,0.382994,0.028335,-0.285147,0.280246
343,156843398,0.922960,-0.034350,-0.018603,0.382908,0.021770,-0.308391,0.201692
344,156860065,0.922999,-0.034556,-0.018499,0.382800,0.020870,-0.310220,0.256670
345,156876732,0.923043,-0.034646,-0.018166,0.382704,-0.015181,-0.333555,0.275702
346,156893399,0.923059,-0.034793,-0.017935,0.382661,-0.088484,-0.326080,0.274920
347,156910066,0.923076,-0.034956,-0.017772,0.382614,-0.071671,-0.320730,0.261959
348,156926733,0.923088,-0.035260,-0.017608,0.382564,-0.101132,-0.338182,0.316352
349,156943400,0.923110,-0.035551,-0.017573,0.382487,-0.054782,-0.390435,0.268040
350,156960067,0.923120,-0.035814,-0.017524,0.382440,-0.030330,-0.404829,0.263032
351,156976734,0.923113,-0.035918,-0.017469,0.382450,0.005903,-0.430941,0.249801
352,156993401,0.923098,-0.035838,-0.017347,0.382498,-0.067900,-0.388508,0.264219
353,157010068,0.923103,-0.035770,-0.017402,0.382490,-0.064813,-0.334025,0.220036
354,157026735,0.923066,-0.035726,-0.017473,0.382580,-0.075686,-0.308324,0.266423
355,157043402,0.923004,-0.035709,-0.017565,0.382728,-0.087213,-0.310142,0.267232
356,157060069,0.922926,-0.035774,-0.017827,0.382897,-0.022455,-0.355524,0.292714
357,157076736,0.922905,-0.035691,-0.017900,0.382953,0.002258,-0.310194,0.265592
358,157093403,0.922920,-0.035711,-0.017997,0.382909,-0.008025,-0.276545,0.292408
359,157110070,0.922937,-0.035757,-0.018005,0.382864,-0.011991,-0.274857,0.303368
360,157126737,0.922932,-0.035814,-0.018021,0.382870,-0.031551,-0.269088,0.274596
361,157143404,0.922897,-0.036031,-0.018021,0.382934,0.007988,-0.304725,0.244297
362,157160071,0.922874,-0.036165,-0.018040,0.382975,0.061365,-0.336534,0.280428
363,157176738,0.922897,-0.036180,-0.017806,0.382930,0.019928,-0.333387,0.217708
364,157193405,0.922928,-0.036212,-0.017662,0.382858,-0.040847,-0.286639,0.219318
365,157210072,0.922933,-0.036255,-0.017413,0.382854,-0.071843,-0.324894,0.207138
366,157226739,0.922934,-0.036333,-0.017317,0.382850,-0.151536,-0.290398,0.295824
367,157243406,0.922947,-0.036717,-0.017551,0.382770,-0.043086,-0.378363,0.293434
368,157260073,0.923005,-0.036874,-0.017626,0.382610,0.073501,-0.413861,0.272187
369,157276740,0.923101,-0.036797,-0.017457,0.382395,0.002754,-0.381714,0.318366
370,157293407,0.923181,-0.036691,-0.017403,0.382214,-0.040874,-0.323462,0.286837
371,157310074,0.923242,-0.036618,-0.017320,0.382078,-0.063778,-0.266201,0.216404
372,157326741,0.923241,-0.036588,-0.017263,0.382086,-0.069514,-0.260238,0.234824
373,157343408,0.923215,-0.036597,-0.017289,0.382147,-0.045449,-0.253625,0.228564
374,157360075,0.923183,-0.036632,-0.017302,0.382220,-0.046745,-0.255272,0.249442
375,157376742,0.923166,-0.036753,-0.017417,0.382245,-0.009314,-0.269316,0.264506
376,157393409,0.923181,-0.036865,-0.017412,0.382197,0.019833,-0.264105,0.274697
377,157410076,0.923210,-0.036981,-0.017376,0.382119,-0.010400,-0.258947,0.291820
378,157426743,0.923219,-0.037155,-0.017345,0.382080,0.063412,-0.301621,0.264890
379,157443410,0.923245,-0.037254,-0.017140,0.382016,0.010466,-0.324000,0.258171
380,157460077,0.923282,-0.037332,-0.017009,0.381925,-0.001867,-0.358575,0.262570
381,157476744,0.923333,-0.037283,-0.016850,0.381814,-0.041395,-0.310966,0.265408
382,157493411,0.923373,-0.037307,-0.016841,0.381716,-0.051019,-0.285347,0.277356
383,157510078,0.923405,-0.037320,-0.016790,0.381640,-0.012034,-0.252336,0.238194
384,157526745,0.923426,-0.037375,-0.016718,0.381587,-0.021520,-0.253200,0.258846
385,157543412,0.923454,-0.037442,-0.016604,0.381517,-0.009885,-0.294829,0.247921
386,157560079,0.923497,-0.037473,-0.016510,0.381415,-0.027311,-0.304114,0.288589
387,157576746,0.923556,-0.037478,-0.016379,0.381276,-0.030336,-0.267438,0.254453
388,157593413,0.923602,-0.037565,-0.016304,0.381161,-0.065669,-0.255798,0.279331
389,157610080,0.923605,-0.037614,-0.016234,0.381151,-0.041202,-0.285849,0.273211
390,157626747,0.923595,-0.037736,-0.016254,0.381162,-0.042455,-0.248814,0.272177
391,157643414,0.923606,-0.037862,-0.016252,0.381123,0.030280,-0.268394,0.257469
392,157660081,0.923652,-0.037993,-0.016163,0.381002,0.023120,-0.259862,0.276027
393,157676748,0.923725,-0.038066,-0.015975,0.380827,0.016049,-0.275502,0.280910
394,157693415,0.923791,-0.038106,-0.015745,0.380672,-0.067956,-0.246414,0.280734
395,157710082,0.923808,-0.038250,-0.015687,0.380617,-0.060056,-0.295336,0.295733
396,157726749,0.923789,-0.038325,-0.015670,0.380658,-0.026868,-0.301668,0.257820
397,157743416,0.923764,-0.038487,-0.015766,0.380697,0.031530,-0.265949,0.243547
398,157760083,0.923754,-0.038466,-0.015596,0.380731,0.078553,-0.282432,0.213609
399,157776750,0.923741,-0.038357,-0.015289,0.380787,-0.058723,-0.218867,0.302126
400,157793417,0.923679,-0.038384,-0.015090,0.380940,-0.090879,-0.199521,0.257302
401,157810084,0.923568,-0.038518,-0.014952,0.381203,-0.092780,-0.236316,0.317027
402,157826751,0.923449,-0.038717,-0.014923,0.381473,-0.040802,-0.310836,0.302693
403,157843418,0.923338,-0.038895,-0.015073,0.381717,0.053160,-0.354084,0.313940
404,157860085,0.923251,-0.038852,-0.015026,0.381932,0.139894,-0.348881,0.247434
405,157876752,0.923209,-0.038517,-0.014670,0.382081,0.034289,-0.257284,0.230959
406,157893419,0.923152,-0.038302,-0.014380,0.382251,-0.052274,-0.208791,0.235085
407,157910086,0.923104,-0.038129,-0.014078,0.382396,-0.110260,-0.181712,0.221865
408,157926753,0.923015,-0.038155,-0.013918,0.382615,-0.168367,-0.197591,0.287165
409,157943420,0.922930,-0.038278,-0.014017,0.382803,-0.083128,-0.272246,0.284330
410,157960087,0.922865,-0.038354,-0.014098,0.382950,-0.076782,-0.264590,0.288833
411,157976754,0.922828,-0.038468,-0.014317,0.383020,0.010845,-0.290359,0.266960
412,157993421,0.922840,-0.038393,-0.014278,0.382999,-0.002425,-0.228592,0.273592
413,158010088,0.922844,-0.038469,-0.014340,0.382979,-0.019090,-0.181008,0.292848
414,158026755,0.922813,-0.038599,-0.014257,0.383045,0.002903,-0.161537,0.259109
415,158043422,0.922760,-0.038799,-0.014160,0.383155,-0.021369,-0.184789,0.255750
416,158060089,0.922695,-0.039069,-0.014065,0.383289,0.023675,-0.269630,0.262989
417,158076756,0.922654,-0.039237,-0.013879,0.383375,0.031806,-0.309163,0.244539
418,158093423,0.922687,-0.039267,-0.013654,0.383303,0.014007,-0.268995,0.242370
419,158110090,0.922746,-0.039268,-0.013293,0.383173,-0.076563,-0.205323,0.201255
420,158126757,0.922797,-0.039579,-0.013116,0.383023,-0.090109,-0.210162,0.300179
421,158143424,0.922859,-0.039838,-0.012912,0.382855,0.000077,-0.295755,0.287251
422,158160091,0.922934,-0.039965,-0.012614,0.382670,-0.037658,-0.285726,0.323470
423,158176758,0.923027,-0.040113,-0.012472,0.382435,-0.017030,-0.229563,0.289770
424,158193425,0.923154,-0.040222,-0.012210,0.382125,-0.015392,-0.223115,0.252807
425,158210092,0.923250,-0.040355,-0.011883,0.381890,-0.091050,-0.182657,0.252872
426,158226759,0.923282,-0.040598,-0.011706,0.381792,-0.068028,-0.233754,0.236341
427,158243426,0.923279,-0.040751,-0.011448,0.381792,-0.075873,-0.237435,0.243175
428,158260093,0.923264,-0.040925,-0.011301,0.381813,-0.101396,-0.281152,0.244956
429,158276760,0.923260,-0.041085,-0.011291,0.381806,-0.078008,-0.273941,0.257889
430,158293427,0.923262,-0.041167,-0.011353,0.381789,-0.027557,-0.271436,0.289347
431,158310094,0.923291,-0.041247,-0.011394,0.381710,0.000144,-0.220761,0.262748
432,158326761,0.923307,-0.041289,-0.011395,0.381667,-0.018789,-0.205259,0.278638
433,158343428,0.923313,-0.041422,-0.011398,0.381638,0.030271,-0.228075,0.280718
434,158360095,0.923335,-0.041478,-0.011284,0.381583,0.028274,-0.231026,0.259874
435,158376762,0.923402,-0.041518,-0.011168,0.381419,0.027389,-0.240611,0.253294
436,158393429,0.923457,-0.041501,-0.010902,0.381296,-0.004793,-0.196729,0.259353
437,158410096,0.923483,-0.041518,-0.010677,0.381238,-0.076629,-0.162666,0.263550
438,158426763,0.923447,-0.041663,-0.010523,0.381312,-0.096781,-0.158776,0.239851
439,158443430,0.923381,-0.041881,-0.010463,0.381451,-0.074862,-0.209122,0.260066
440,158460097,0.923291,-0.042109,-0.010435,0.381643,-0.026326,-0.252212,0.283396
441,158476764,0.923228,-0.042316,-0.010446,0.381774,0.013029,-0.268287,0.278879
442,158493431,0.923237,-0.042420,-0.010374,0.381742,0.008300,-0.262216,0.268272
443,158510098,0.923262,-0.042498,-0.010285,0.381674,-0.014734,-0.259290,0.281210
444,158526765,0.923309,-0.042508,-0.010196,0.381562,-0.020090,-0.243251,0.279774
445,158543432,0.923309,-0.042504,-0.010150,0.381565,-0.033928,-0.214307,0.273121
446,158560099,0.923308,-0.042526,-0.010178,0.381563,-0.009666,-0.194128,0.272687
447,158576766,0.923289,-0.042520,-0.010132,0.381611,-0.023285,-0.197489,0.267182
448,158593433,0.923313,-0.042537,-0.010102,0.381551,-0.016317,-0.181111,0.255634
449,158610100,0.923364,-0.042630,-0.010029,0.381419,0.012532,-0.205012,0.241973
450,158626767,0.923356,-0.042647,-0.009828,0.381443,-0.067509,-0.184317,0.255037
451,158643434,0.923293,-0.042797,-0.009767,0.381580,-0.070942,-0.214338,0.283408
452,158660101,0.923207,-0.042922,-0.009781,0.381772,-0.023424,-0.243444,0.295434
453,158676768,0.923152,-0.042983,-0.009822,0.381899,0.009824,-0.240860,0.300946
454,158693435,0.923111,-0.042987,-0.009833,0.381998,0.021303,-0.221399,0.263777
455,158710102,0.923097,-0.042999,-0.009766,0.382032,0.000147,-0.218633,0.275193
456,158726769,0.923092,-0.043023,-0.009734,0.382042,0.001754,-0.211917,0.209628
457,158743436,0.923063,-0.043059,-0.009640,0.382111,-0.013543,-0.242215,0.250447
458,158760103,0.923040,-0.043005,-0.009519,0.382174,-0.048595,-0.252965,0.266903
459,158776770,0.923064,-0.042981,-0.009514,0.382119,-0.065294,-0.265727,0.272462
460,158793437,0.923138,-0.042934,-0.009576,0.381945,-0.052538,-0.252137,0.278857
461,158810104,0.923212,-0.042930,-0.009643,0.381764,-0.090045,-0.213282,0.300366
462,158826771,0.923268,-0.042946,-0.009815,0.381622,-0.035910,-0.249286,0.286469
463,158843438,0.923290,-0.042838,-0.009867,0.381581,-0.062576,-0.233540,0.283468
464,158860105,0.923270,-0.042700,-0.010062,0.381638,-0.065912,-0.239399,0.241984
465,158876772,0.923244,-0.042450,-0.010222,0.381725,-0.052733,-0.254612,0.238939
466,158893439,0.923230,-0.042236,-0.010473,0.381777,-0.082120,-0.207562,0.249219
467,158910106,0.923193,-0.041962,-0.010719,0.381888,-0.037080,-0.176269,0.227939
468,158926773,0.923122,-0.041777,-0.011025,0.382072,-0.047126,-0.170395,0.265464
469,158943440,0.923064,-0.041559,-0.011327,0.382226,0.024390,-0.150171,0.278524
470,158960107,0.923050,-0.041390,-0.011525,0.382273,0.024711,-0.129909,0.269982
471,158976774,0.923047,-0.041259,-0.011609,0.382292,0.016594,-0.066857,0.260594
472,158993441,0.923067,-0.041297,-0.011638,0.382239,-0.003470,-0.082915,0.285251
473,159010108,0.923069,-0.041388,-0.011622,0.382225,-0.007978,-0.121945,0.268749
474,159026775,0.923050,-0.041505,-0.011577,0.382259,-0.038620,-0.155932,0.287489
475,159043442,0.923057,-0.041678,-0.011575,0.382224,-0.004957,-0.188456,0.280225
476,159060109,0.923110,-0.041779,-0.011553,0.382086,-0.006894,-0.206681,0.259027
477,159076776,0.923179,-0.041781,-0.011550,0.381919,0.019470,-0.193700,0.202076
478,159093443,0.923235,-0.041792,-0.011468,0.381784,-0.036500,-0.153712,0.244502
479,159110110,0.923269,-0.041958,-0.011464,0.381685,-0.063485,-0.168476,0.274277
480,159126777,0.923298,-0.042145,-0.011512,0.381593,-0.013596,-0.248278,0.285011
481,159143444,0.923329,-0.042247,-0.011508,0.381505,-0.021029,-0.264865,0.344317
482,159160111,0.923370,-0.042238,-0.011593,0.381405,0.019859,-0.283066,0.297964
483,159176778,0.923415,-0.042089,-0.011599,0.381312,-0.032703,-0.214658,0.286867
484,159193445,0.923421,-0.042046,-0.011781,0.381296,-0.000674,-0.179414,0.270038
485,159210112,0.923430,-0.041961,-0.011800,0.381284,0.033700,-0.160564,0.240146
486,159226779,0.923430,-0.041890,-0.011776,0.381293,0.012854,-0.133827,0.244443
487,159243446,0.923416,-0.041904,-0.011670,0.381327,-0.021710,-0.128886,0.244291
488,159260113,0.923366,-0.041933,-0.011639,0.381447,-0.062723,-0.144133,0.257637
489,159276780,0.923337,-0.042041,-0.011650,0.381505,-0.065897,-0.171923,0.270856
490,159293447,0.923306,-0.042105,-0.011725,0.381569,-0.007546,-0.205988,0.303106
491,159310114,0.923306,-0.042151,-0.011835,0.381561,-0.001194,-0.177058,0.294664
492,159326781,0.923322,-0.042248,-0.011917,0.381510,0.029158,-0.164932,0.241253
493,159343448,0.923379,-0.042330,-0.011908,0.381364,0.056309,-0.172245,0.240065
494,159360115,0.923431,-0.042365,-0.011787,0.381237,0.019840,-0.182522,0.256918
495,159376782,0.923466,-0.042382,-0.011656,0.381154,-0.040915,-0.180072,0.270088
496,159393449,0.923492,-0.042422,-0.011580,0.381089,-0.071101,-0.195121,0.277281
497,159410116,0.923511,-0.042460,-0.011556,0.381040,-0.069597,-0.222084,0.275829
498,159426783,0.923543,-0.042443,-0.011591,0.380964,-0.079509,-0.200560,0.281799
499,159443450,0.923581,-0.042432,-0.011668,0.380868,-0.061409,-0.175637,0.270229
500,159460117,0.923605,-0.042425,-0.011746,0.380809,-0.038098,-0.149649,0.288143
501,159476784,0.923640,-0.042464,-0.011861,0.380717,-0.019781,-0.147539,0.237899
502,159493451,0.923679,-0.042515,-0.011906,0.380615,-0.014880,-0.148306,0.281586
503,159510118,0.923723,-0.042594,-0.011965,0.380498,-0.022206,-0.194242,0.258348
504,159526785,0.923750,-0.042653,-0.012005,0.380425,-0.001141,-0.192193,0.264237
505,159543452,0.923781,-0.042664,-0.012011,0.380347,0.022549,-0.175479,0.281493
506,159560119,0.923781,-0.042632,-0.011942,0.380353,-0.009916,-0.186300,0.248020
507,159576786,0.923751,-0.042615,-0.011908,0.380429,-0.018932,-0.195705,0.271599
508,159593453,0.923725,-0.042585,-0.011883,0.380497,-0.034842,-0.191853,0.268928
509,159610120,0.923714,-0.042541,-0.011868,0.380527,-0.006865,-0.179841,0.243871
510,159626787,0.923725,-0.042522,-0.011805,0.380506,-0.042656,-0.172434,0.258804
511,159643454,0.923696,-0.042535,-0.011784,0.380576,-0.044846,-0.159599,0.275730
512,159660121,0.923642,-0.042584,-0.011815,0.380700,-0.017868,-0.215875,0.278338
513,159676788,0.923656,-0.042507,-0.011786,0.380675,-0.001551,-0.208874,0.266836
514,159693455,0.923685,-0.042456,-0.011824,0.380609,-0.017202,-0.207322,0.232774
515,159710122,0.923754,-0.042375,-0.011798,0.380453,-0.019160,-0.219259,0.246087
516,159726789,0.923849,-0.042261,-0.011842,0.380233,-0.053167,-0.143291,0.248074
517,159743456,0.923882,-0.042230,-0.011839,0.380157,-0.071560,-0.163564,0.284388
518,159760123,0.923860,-0.042222,-0.011970,0.380206,-0.075120,-0.164431,0.305222
519,159776790,0.923821,-0.042244,-0.012178,0.380292,0.016753,-0.171943,0.249371
520,159793457,0.923838,-0.042311,-0.012327,0.380238,0.025875,-0.170118,0.307804
521,159810124,0.923911,-0.042307,-0.012343,0.380061,0.052867,-0.215317,0.287482
522,159826791,0.924005,-0.042232,-0.012263,0.379844,0.004324,-0.163681,0.283864
523,159843458,0.924057,-0.042126,-0.012158,0.379731,-0.059238,-0.131291,0.286268
524,159860125,0.924023,-0.042100,-0.012188,0.379817,-0.046191,-0.115269,0.246984
525,159876792,0.923971,-0.042082,-0.012207,0.379944,-0.001304,-0.138641,0.237988
526,159893459,0.923978,-0.042096,-0.012236,0.379925,-0.001632,-0.142538,0.231409
527,159910126,0.924027,-0.042102,-0.012232,0.379806,0.013643,-0.142527,0.212298
528,159926793,0.924102,-0.042115,-0.012062,0.379627,-0.056417,-0.105612,0.269664
529,159943460,0.924115,-0.042198,-0.012042,0.379586,-0.077952,-0.153126,0.298647
530,159960127,0.924099,-0.042265,-0.012060,0.379617,-0.041374,-0.197234,0.299245
531,159976794,0.924124,-0.042264,-0.012150,0.379554,-0.010814,-0.200716,0.295067
532,159993461,0.924191,-0.042186,-0.012176,0.379400,0.011432,-0.141491,0.270178
533,160010128,0.924248,-0.042196,-0.012109,0.379261,-0.052200,-0.091164,0.281782
534,160026795,0.924228,-0.042311,-0.012139,0.379294,-0.042957,-0.118521,0.286499
535,160043462,0.924176,-0.042419,-0.012124,0.379411,0.010878,-0.198591,0.296094
536,160060129,0.924107,-0.042437,-0.012196,0.379574,0.032932,-0.215638,0.263735
537,160076796,0.924108,-0.042273,-0.012143,0.379591,0.066566,-0.180128,0.179026
538,160093463,0.924157,-0.042085,-0.011926,0.379500,-0.026034,-0.114144,0.212481
539,160110130,0.924168,-0.042015,-0.011645,0.379491,-0.118388,-0.076658,0.303551
540,160126797,0.924140,-0.042360,-0.011676,0.379519,-0.106148,-0.185593,0.348012
541,160143464,0.924127,-0.042543,-0.011753,0.379528,0.011241,-0.278644,0.322940
542,160160131,0.924136,-0.042445,-0.011733,0.379518,0.020042,-0.256896,0.320390
543,160176798,0.924200,-0.042279,-0.011680,0.379382,-0.021763,-0.141254,0.277322
544,160193465,0.924268,-0.042208,-0.011595,0.379227,-0.072098,-0.086336,0.257257
545,160210132,0.924263,-0.042275,-0.011540,0.379234,-0.073969,-0.082710,0.215764
546,160226799,0.924187,-0.042379,-0.011536,0.379408,-0.041479,-0.199496,0.243587
547,160243466,0.924083,-0.042446,-0.011618,0.379650,0.002876,-0.252655,0.267401
548,160260133,0.924066,-0.042281,-0.011643,0.379710,0.023643,-0.237315,0.256661
549,160276800,0.924102,-0.042073,-0.011597,0.379647,-0.060517,-0.133353,0.275749
550,160293467,0.924169,-0.041977,-0.011625,0.379494,-0.046344,-0.102639,0.263145
551,160310134,0.924193,-0.041935,-0.011573,0.379440,-0.085273,-0.096751,0.279811
552,160326801,0.924162,-0.041996,-0.011705,0.379506,-0.045467,-0.142165,0.304998
553,160343468,0.924149,-0.042001,-0.011791,0.379532,-0.019155,-0.169924,0.268764
554,160360135,0.924128,-0.041967,-0.011903,0.379585,0.004755,-0.156424,0.270395
555,160376802,0.924152,-0.041950,-0.012004,0.379526,0.017227,-0.137329,0.234611
556,160393469,0.924185,-0.041873,-0.011989,0.379453,-0.016209,-0.096913,0.237590
557,160410136,0.924213,-0.041893,-0.011968,0.379384,-0.020791,-0.121282,0.289816
558,160426803,0.924215,-0.041851,-0.011874,0.379387,-0.053382,-0.121293,0.301139
559,160443470,0.924185,-0.041883,-0.011912,0.379455,-0.087996,-0.108230,0.279812
560,160460137,0.924151,-0.041952,-0.012021,0.379526,-0.023636,-0.138731,0.268853
561,160476804,0.924114,-0.041990,-0.012091,0.379610,0.003617,-0.145003,0.258924
562,160493471,0.924170,-0.042013,-0.012131,0.379470,0.012210,-0.120611,0.238667
563,160510138,0.924200,-0.042069,-0.012069,0.379393,-0.019213,-0.120259,0.262821
564,160526805,0.924200,-0.042110,-0.012060,0.379388,-0.038251,-0.118414,0.258366
565,160543472,0.924170,-0.042169,-0.012087,0.379454,-0.048229,-0.140850,0.277949
566,160560139,0.924154,-0.042263,-0.012211,0.379479,0.009504,-0.144951,0.244984
567,160576806,0.924148,-0.042251,-0.012218,0.379495,0.027796,-0.165785,0.272900
568,160593473,0.924169,-0.042250,-0.012239,0.379444,-0.004540,-0.145264,0.262584
569,160610140,0.924182,-0.042231,-0.012207,0.379415,-0.018986,-0.132292,0.289367
570,160626807,0.924209,-0.042227,-0.012206,0.379348,-0.024148,-0.096320,0.264653
571,160643474,0.924216,-0.042248,-0.012157,0.379332,-0.019348,-0.110513,0.277781
572,160660141,0.924261,-0.042301,-0.012146,0.379216,-0.003157,-0.103984,0.225678
573,160676808,0.924338,-0.042438,-0.012072,0.379015,-0.030612,-0.104974,0.221571
574,160693475,0.924388,-0.042532,-0.011977,0.378886,-0.018566,-0.163640,0.282856
575,160710142,0.924450,-0.042658,-0.011842,0.378725,-0.068526,-0.146742,0.267940
576,160726809,0.924454,-0.042739,-0.011816,0.378706,-0.089724,-0.153604,0.258072
577,160743476,0.924392,-0.042902,-0.011826,0.378839,-0.091349,-0.190591,0.343216
578,160760143,0.924331,-0.043092,-0.012008,0.378962,-0.011716,-0.242177,0.336121
579,160776810,0.924354,-0.043090,-0.012174,0.378901,0.074370,-0.265426,0.264096
580,160793477,0.924440,-0.042870,-0.012111,0.378717,0.034076,-0.162320,0.223842
581,160810144,0.924515,-0.042680,-0.011993,0.378559,-0.046359,-0.089525,0.221116
582,160826811,0.924521,-0.042571,-0.011932,0.378557,-0.097462,-0.061724,0.265903
583,160843478,0.924445,-0.042618,-0.012031,0.378735,-0.080982,-0.120814,0.281948
584,160860145,0.924373,-0.042629,-0.012173,0.378906,-0.018659,-0.145088,0.275411
585,160876812,0.924287,-0.042543,-0.012297,0.379120,0.019883,-0.148753,0.261769
586,160893479,0.924231,-0.042427,-0.012332,0.379269,-0.001519,-0.136418,0.283892
587,160910146,0.924182,-0.042311,-0.012399,0.379400,-0.022831,-0.099288,0.275372
588,160926813,0.924134,-0.042279,-0.012423,0.379519,-0.033357,-0.073336,0.281153
589,160943480,0.924122,-0.042322,-0.012519,0.379540,0.011932,-0.084749,0.238711
590,160960147,0.924118,-0.042389,-0.012472,0.379544,0.040192,-0.055283,0.245126
591,160976814,0.924113,-0.042527,-0.012404,0.379542,0.057386,-0.080058,0.254322
592,160993481,0.924123,-0.042634,-0.012225,0.379513,0.081127,-0.105749,0.250685
593,161010148,0.924133,-0.042660,-0.011939,0.379495,0.024057,-0.094492,0.275699
594,161026815,0.924115,-0.042709,-0.011696,0.379539,-0.029811,-0.089970,0.285593
595,161043482,0.924080,-0.042765,-0.011391,0.379627,-0.063032,-0.091269,0.251564
596,161060149,0.924038,-0.042988,-0.011183,0.379712,-0.114775,-0.117558,0.302580
597,161076816,0.924017,-0.043252,-0.011124,0.379736,-0.032792,-0.192143,0.304796
598,161093483,0.924031,-0.043346,-0.011046,0.379692,-0.024962,-0.212162,0.293823
599,161110150,0.924061,-0.043370,-0.011024,0.379617,0.000757,-0.176819,0.286301
600,161126817,0.924099,-0.043339,-0.010927,0.379531,-0.033348,-0.110044,0.265415
601,161143484,0.924101,-0.043398,-0.010870,0.379521,-0.039811,-0.112358,0.248105
602,161160151,0.924089,-0.043397,-0.010756,0.379554,-0.027464,-0.125700,0.244488
603,161176818,0.924084,-0.043423,-0.010677,0.379563,-0.055758,-0.116294,0.235376
604,161193485,0.924091,-0.043491,-0.010632,0.379542,-0.053466,-0.146352,0.237458
605,161210152,0.924107,-0.043538,-0.010629,0.379497,-0.047112,-0.152754,0.275284
606,161226819,0.924134,-0.043561,-0.010590,0.379429,-0.058348,-0.158024,0.291944
607,161243486,0.924160,-0.043587,-0.010612,0.379362,-0.070061,-0.133871,0.300561
608,161260153,0.924182,-0.043636,-0.010660,0.379303,-0.017420,-0.137633,0.264590
609,161276820,0.924206,-0.043720,-0.010710,0.379232,0.005604,-0.132682,0.266049
610,161293487,0.924222,-0.043739,-0.010672,0.379192,0.026939,-0.134521,0.253350
611,161310154,0.924222,-0.043770,-0.010547,0.379193,-0.000460,-0.140711,0.236358
612,161326821,0.924225,-0.043765,-0.010355,0.379191,-0.050861,-0.131450,0.247292
613,161343488,0.924165,-0.043822,-0.010247,0.379333,-0.070855,-0.135399,0.271562
614,161360155,0.924067,-0.043869,-0.010202,0.379568,-0.037319,-0.173073,0.272331
615,161376822,0.923987,-0.043852,-0.010174,0.379766,-0.035436,-0.205436,0.265459
616,161393489,0.923953,-0.043759,-0.010138,0.379859,-0.016246,-0.199512,0.283175
617,161410156,0.923958,-0.043587,-0.010049,0.379870,-0.082369,-0.128698,0.276345
618,161426823,0.923995,-0.043530,-0.010135,0.379783,-0.105568,-0.092429,0.269791
619,161443490,0.923991,-0.043532,-0.010278,0.379790,-0.057043,-0.074324,0.288423
620,161460157,0.923988,-0.043528,-0.010403,0.379794,0.002098,-0.101717,0.251999
621,161476824,0.923991,-0.043528,-0.010442,0.379786,0.015365,-0.082485,0.248099
622,161493491,0.924005,-0.043539,-0.010404,0.379751,-0.004754,-0.094310,0.253804
623,161510158,0.924057,-0.043544,-0.010349,0.379625,-0.010388,-0.097765,0.269704
624,161526825,0.924108,-0.043557,-0.010264,0.379501,-0.050513,-0.074670,0.282015
625,161543492,0.924112,-0.043563,-0.010204,0.379494,-0.074873,-0.062722,0.294538
626,161560159,0.924072,-0.043658,-0.010221,0.379579,-0.078261,-0.078872,0.287909
627,161576826,0.924036,-0.043799,-0.010349,0.379648,-0.029756,-0.129047,0.251124
628,161593493,0.924038,-0.043925,-0.010460,0.379626,0.008794,-0.149512,0.269711
629,161610160,0.924067,-0.043950,-0.010486,0.379550,0.032067,-0.157819,0.269534
630,161626827,0.924090,-0.043924,-0.010467,0.379498,0.004556,-0.141808,0.268265
631,161643494,0.924103,-0.043880,-0.010439,0.379471,-0.028710,-0.116573,0.266561
632,161660161,0.924065,-0.043861,-0.010477,0.379565,-0.045103,-0.093176,0.261554
633,161676828,0.924015,-0.043896,-0.010608,0.379679,0.012737,-0.118577,0.296970
634,161693495,0.923981,-0.043891,-0.010611,0.379762,0.032246,-0.135635,0.236650
635,161710162,0.924007,-0.043906,-0.010609,0.379697,0.036942,-0.105342,0.244109
636,161726829,0.924058,-0.043812,-0.010406,0.379591,0.004101,-0.121323,0.232454
637,161743496,0.924109,-0.043837,-0.010234,0.379468,-0.059151,-0.087783,0.322231
638,161760163,0.924101,-0.043880,-0.010198,0.379484,-0.070988,-0.104937,0.305545
639,161776830,0.924097,-0.043982,-0.010179,0.379483,-0.055205,-0.131930,0.306533
640,161793497,0.924084,-0.044121,-0.010225,0.379496,-0.019627,-0.160782,0.299478
641,161810164,0.924132,-0.044170,-0.010256,0.379373,0.038597,-0.180080,0.249223
642,161826831,0.924206,-0.044078,-0.010144,0.379207,0.018088,-0.142534,0.248502
643,161843498,0.924245,-0.043971,-0.010038,0.379126,-0.075664,-0.080504,0.236998
644,161860165,0.924248,-0.043910,-0.009973,0.379127,-0.087820,-0.060258,0.240671
645,161876832,0.924208,-0.043953,-0.010087,0.379217,-0.063665,-0.102807,0.245897
646,161893499,0.924165,-0.043994,-0.010118,0.379317,-0.045123,-0.104790,0.260510
647,161910166,0.924152,-0.044039,-0.010206,0.379342,-0.005824,-0.118918,0.238980
648,161926833,0.924143,-0.044013,-0.010200,0.379367,-0.023686,-0.119778,0.300875
649,161943500,0.924141,-0.044007,-0.010262,0.379370,-0.023822,-0.098552,0.301955
650,161960167,0.924157,-0.043991,-0.010259,0.379333,-0.025645,-0.081409,0.260836
651,161976834,0.924174,-0.044035,-0.010275,0.379286,-0.015361,-0.041696,0.288670
652,161993501,0.924192,-0.044128,-0.010223,0.379232,-0.032795,-0.069963,0.283179
653,162010168,0.924191,-0.044257,-0.010214,0.379221,-0.008570,-0.101963,0.283940
654,162026835,0.924164,-0.044365,-0.010156,0.379274,0.021633,-0.130306,0.285111
655,162043502,0.924163,-0.044438,-0.010072,0.379270,0.045794,-0.120031,0.287606
656,162060169,0.924176,-0.044405,-0.009903,0.379248,0.010249,-0.122660,0.202966
657,162076836,0.924220,-0.044434,-0.009663,0.379143,-0.067769,-0.060528,0.235585
658,162093503,0.924219,-0.044635,-0.009548,0.379124,-0.106887,-0.103512,0.269035
659,162110170,0.924220,-0.044944,-0.009483,0.379088,-0.071097,-0.193006,0.306647
660,162126837,0.924238,-0.045091,-0.009450,0.379028,-0.048405,-0.231579,0.321814
661,162143504,0.924251,-0.045124,-0.009540,0.378989,-0.017096,-0.220012,0.291718
662,162160171,0.924262,-0.045060,-0.009621,0.378968,-0.011196,-0.166086,0.265574
663,162176838,0.924247,-0.044969,-0.009696,0.379015,0.010549,-0.126755,0.225060
664,162193505,0.924202,-0.044893,-0.009746,0.379131,0.022308,-0.134352,0.244603
665,162210172,0.924184,-0.044746,-0.009607,0.379196,-0.000822,-0.106022,0.265928
666,162226839,0.924170,-0.044605,-0.009585,0.379246,-0.048297,-0.136256,0.272018
667,162243506,0.924171,-0.044481,-0.009588,0.379260,-0.057167,-0.117058,0.254896
668,162260173,0.924184,-0.044398,-0.009674,0.379235,-0.052286,-0.065043,0.272483
669,162276840,0.924199,-0.044422,-0.009755,0.379193,-0.032818,-0.059809,0.278712
670,162293507,0.924204,-0.044468,-0.009766,0.379176,0.015813,-0.078714,0.257094
671,162310174,0.924181,-0.044537,-0.009753,0.379223,0.009178,-0.099906,0.312243
672,162326841,0.924148,-0.044562,-0.009681,0.379305,0.031019,-0.117205,0.261028
673,162343508,0.924122,-0.044569,-0.009607,0.379367,-0.020408,-0.121266,0.273011
674,162360175,0.924144,-0.044547,-0.009578,0.379318,-0.008411,-0.131469,0.243171
675,162376842,0.924196,-0.044501,-0.009477,0.379199,-0.074648,-0.099916,0.263715
676,162393509,0.924230,-0.044515,-0.009490,0.379114,-0.058629,-0.094534,0.276220
677,162410176,0.924235,-0.044484,-0.009490,0.379105,-0.053557,-0.093959,0.273877
678,162426843,0.924237,-0.044497,-0.009502,0.379098,-0.055544,-0.092272,0.273121
679,162443510,0.924256,-0.044450,-0.009515,0.379059,-0.037402,-0.099746,0.260211
680,162460177,0.924287,-0.044451,-0.009555,0.378980,-0.063091,-0.089438,0.261337
681,162476844,0.924293,-0.044476,-0.009643,0.378960,-0.026669,-0.100529,0.271433
682,162493511,0.924314,-0.044464,-0.009731,0.378909,-0.000835,-0.113973,0.267204
683,162510178,0.924345,-0.044448,-0.009815,0.378832,0.010193,-0.076278,0.256679
684,162526845,0.924383,-0.044422,-0.009768,0.378744,0.021674,-0.046412,0.243150
685,162543512,0.924410,-0.044473,-0.009688,0.378674,-0.009971,-0.041694,0.266352
686,162560179,0.924404,-0.044581,-0.009589,0.378678,-0.026002,-0.087201,0.266467
687,162576846,0.924401,-0.044682,-0.009509,0.378677,-0.053814,-0.081666,0.287708
688,162593513,0.924389,-0.044779,-0.009533,0.378694,-0.011057,-0.123170,0.277205
689,162610180,0.924411,-0.044865,-0.009509,0.378631,0.034975,-0.134606,0.259770
690,162626847,0.924458,-0.044899,-0.009398,0.378516,-0.001106,-0.097260,0.270664
691,162643514,0.924490,-0.044963,-0.009306,0.378431,-0.033217,-0.106404,0.260867
692,162660181,0.924469,-0.045068,-0.009249,0.378472,-0.052598,-0.135979,0.265978
693,162676848,0.924420,-0.045116,-0.009308,0.378584,-0.046527,-0.190754,0.309639
694,162693515,0.924380,-0.045037,-0.009448,0.378687,-0.003600,-0.191620,0.258817
695,162710182,0.924376,-0.044967,-0.009653,0.378700,0.066412,-0.143859,0.270564
696,162726849,0.924422,-0.044740,-0.009666,0.378614,0.052118,-0.102142,0.257716
697,162743516,0.924501,-0.044582,-0.009608,0.378442,-0.011154,-0.060558,0.240918
698,162760183,0.924541,-0.044520,-0.009580,0.378353,-0.033568,-0.029805,0.257550
699,162776850,0.924532,-0.044523,-0.009522,0.378374,-0.027258,-0.087724,0.264240
700,162793517,0.924507,-0.044542,-0.009462,0.378436,-0.042172,-0.099103,0.272992
701,162810184,0.924531,-0.044521,-0.009464,0.378380,-0.039725,-0.111831,0.273823
702,162826851,0.924549,-0.044631,-0.009460,0.378323,-0.026107,-0.091694,0.285086
703,162843518,0.924576,-0.044694,-0.009413,0.378249,-0.013271,-0.115067,0.297738
704,162860185,0.924613,-0.044706,-0.009414,0.378160,-0.012818,-0.104483,0.323892
705,162876852,0.924629,-0.044565,-0.009312,0.378139,-0.034477,-0.081376,0.249623
706,162893519,0.924607,-0.044536,-0.009256,0.378196,-0.082420,-0.031828,0.237680
707,162910186,0.924593,-0.044570,-0.009265,0.378227,-0.064446,-0.064017,0.211229
708,162926853,0.924594,-0.044667,-0.009306,0.378213,-0.017546,-0.082315,0.239102
709,162943520,0.924603,-0.044704,-0.009297,0.378186,0.016468,-0.092999,0.254807
710,162960187,0.924642,-0.044660,-0.009228,0.378097,-0.057681,-0.080263,0.284039
711,162976854,0.924652,-0.044642,-0.009155,0.378078,-0.096946,-0.050315,0.268469
712,162993521,0.924610,-0.044706,-0.009128,0.378172,-0.112427,-0.058421,0.286887
713,163010188,0.924539,-0.044863,-0.009183,0.378327,-0.097629,-0.095247,0.287061
714,163026855,0.924459,-0.045059,-0.009373,0.378495,-0.025365,-0.151155,0.301105
715,163043522,0.924400,-0.045154,-0.009527,0.378624,0.042525,-0.156671,0.276712
716,163060189,0.924352,-0.045140,-0.009605,0.378740,0.042327,-0.148561,0.251550
717,163076856,0.924359,-0.045073,-0.009619,0.378731,0.040641,-0.113420,0.260187
718,163093523,0.924372,-0.044962,-0.009571,0.378714,0.000858,-0.108153,0.265110
719,163110190,0.924369,-0.044767,-0.009490,0.378745,-0.048180,-0.063229,0.202328
720,163126857,0.924335,-0.044755,-0.009497,0.378830,-0.090897,-0.052647,0.248214
721,163143524,0.924298,-0.044838,-0.009573,0.378907,-0.053875,-0.071385,0.256300
722,163160191,0.924271,-0.044973,-0.009652,0.378957,0.005034,-0.148116,0.285138
723,163176858,0.924292,-0.044975,-0.009686,0.378904,0.009852,-0.164460,0.266565
724,163193525,0.924353,-0.044877,-0.009655,0.378766,0.009807,-0.129591,0.285140
725,163210192,0.924413,-0.044731,-0.009588,0.378639,-0.034220,-0.063970,0.258558
726,163226859,0.924444,-0.044727,-0.009551,0.378566,-0.099405,-0.043328,0.275731
727,163243526,0.924420,-0.044803,-0.009692,0.378611,-0.046120,-0.106998,0.259629
728,163260193,0.924376,-0.044781,-0.009779,0.378718,-0.033400,-0.128365,0.247540
729,163276860,0.924349,-0.044732,-0.009970,0.378786,-0.010664,-0.119378,0.247327
730,163293527,0.924357,-0.044647,-0.010092,0.378774,-0.010165,-0.073117,0.274971
731,163310194,0.924357,-0.044555,-0.010274,0.378779,0.002995,-0.061751,0.275907
732,163326861,0.924353,-0.044501,-0.010336,0.378793,-0.007795,-0.050922,0.312544
733,163343528,0.924340,-0.044454,-0.010403,0.378830,-0.019758,-0.036123,0.270840
734,163360195,0.924301,-0.044481,-0.010435,0.378920,-0.051204,-0.031333,0.275314
735,163376862,0.924235,-0.044598,-0.010513,0.379066,-0.045469,-0.055179,0.285519
736,163393529,0.924167,-0.044726,-0.010632,0.379212,-0.036127,-0.068682,0.271649
737,163410196,0.924108,-0.044867,-0.010805,0.379335,0.001453,-0.121431,0.235946
738,163426863,0.924070,-0.044970,-0.010888,0.379412,0.020835,-0.112036,0.266884
739,163443530,0.924068,-0.044963,-0.010922,0.379418,0.020530,-0.092934,0.242489
740,163460197,0.924090,-0.044971,-0.010858,0.379364,-0.021283,-0.067064,0.281952
741,163476864,0.924123,-0.045003,-0.010842,0.379281,-0.030469,-0.070472,0.300220
742,163493531,0.924149,-0.044994,-0.010793,0.379221,-0.051719,-0.070697,0.300818
743,163510198,0.924144,-0.044997,-0.010833,0.379231,-0.064204,-0.051263,0.290328
744,163526865,0.924114,-0.045076,-0.010996,0.379290,-0.017873,-0.059400,0.270274
745,163543532,0.924093,-0.045137,-0.011103,0.379331,0.027078,-0.055727,0.261708
746,163560199,0.924086,-0.045189,-0.011070,0.379341,0.021151,-0.014796,0.249548
747,163576866,0.924083,-0.045337,-0.010993,0.379335,-0.012846,-0.048864,0.256755
748,163593533,0.924064,-0.045509,-0.010907,0.379361,-0.013607,-0.099953,0.249575
749,163610200,0.924072,-0.045614,-0.010792,0.379334,-0.035967,-0.081132,0.266889
750,163626867,0.924055,-0.045789,-0.010762,0.379356,-0.044453,-0.107518,0.258226
751,163643534,0.923994,-0.045958,-0.010765,0.379483,-0.032332,-0.111851,0.277481
752,163660201,0.923919,-0.046062,-0.010749,0.379652,-0.007550,-0.113275,0.263125
753,163676868,0.923834,-0.046214,-0.010724,0.379842,0.019520,-0.111794,0.289564
754,163693535,0.923768,-0.046299,-0.010622,0.379995,0.023317,-0.108288,0.275527
755,163710202,0.923709,-0.046381,-0.010511,0.380131,0.001312,-0.133822,0.239902
756,163726869,0.923692,-0.046388,-0.010357,0.380177,-0.011875,-0.131773,0.258373
757,163743536,0.923703,-0.046379,-0.010318,0.380151,-0.038562,-0.099533,0.306915
758,163760203,0.923760,-0.046334,-0.010219,0.380022,-0.004165,-0.057760,0.194086
759,163776870,0.923776,-0.046484,-0.010176,0.379964,-0.024604,-0.017259,0.271627
760,163793537,0.923778,-0.046503,-0.010005,0.379964,-0.028005,-0.087304,0.267429
761,163810204,0.923768,-0.046603,-0.009897,0.379979,-0.039427,-0.101715,0.287337
762,163826871,0.923737,-0.046619,-0.009867,0.380051,-0.020419,-0.076277,0.320127
763,163843538,0.923678,-0.046650,-0.009784,0.380193,-0.048010,-0.073913,0.331683
764,163860205,0.923605,-0.046731,-0.009830,0.380359,-0.012633,-0.095451,0.283727
765,163876872,0.923547,-0.046790,-0.009871,0.380491,0.039047,-0.076131,0.273487
766,163893539,0.923508,-0.046751,-0.009759,0.380594,0.037131,-0.052532,0.213245
767,163910206,0.923493,-0.046783,-0.009548,0.380632,-0.032955,-0.039453,0.227499
768,163926873,0.923511,-0.046850,-0.009410,0.380584,-0.049995,-0.053903,0.222319
769,163943540,0.923493,-0.046973,-0.009275,0.380615,-0.068666,-0.078402,0.255207
770,163960207,0.923465,-0.047099,-0.009265,0.380668,-0.022166,-0.102987,0.282604
771,163976874,0.923431,-0.047138,-0.009213,0.380748,-0.020071,-0.083601,0.293989
772,163993541,0.923432,-0.047188,-0.009209,0.380739,-0.013568,-0.068711,0.277513
773,164010208,0.923423,-0.047276,-0.009191,0.380749,0.016331,-0.059794,0.266074
774,164026875,0.923424,-0.047373,-0.009156,0.380737,0.016055,-0.102799,0.246884
775,164043542,0.923428,-0.047353,-0.009013,0.380733,-0.008234,-0.078727,0.278358
776,164060209,0.923438,-0.047444,-0.009012,0.380698,0.003069,-0.096120,0.276522
777,164076876,0.923491,-0.047436,-0.008860,0.380572,0.023791,-0.075071,0.229606
778,164093543,0.923541,-0.047529,-0.008728,0.380443,-0.017641,-0.078746,0.286604
779,164110210,0.923570,-0.047520,-0.008509,0.380378,-0.017903,-0.103187,0.216716
780,164126877,0.923548,-0.047529,-0.008291,0.380436,-0.086735,-0.069682,0.249657
781,164143544,0.923497,-0.047542,-0.008164,0.380560,-0.087886,-0.095182,0.226089
782,164160211,0.923445,-0.047757,-0.008168,0.380660,-0.086786,-0.109446,0.295140
783,164176878,0.923414,-0.048009,-0.008355,0.380700,0.061087,-0.226358,0.295947
784,164193545,0.923444,-0.047886,-0.008239,0.380646,0.064916,-0.201458,0.297666
785,164210212,0.923454,-0.047715,-0.008110,0.380644,0.013207,-0.158161,0.294855
786,164226879,0.923458,-0.047415,-0.007882,0.380677,-0.065785,-0.101006,0.282122
787,164243546,0.923442,-0.047224,-0.007839,0.380741,-0.121950,-0.070806,0.259950
788,164260213,0.923402,-0.047137,-0.007906,0.380847,-0.076162,-0.084179,0.235736
789,164276880,0.923367,-0.047044,-0.008012,0.380942,-0.053820,-0.072402,0.230796
790,164293547,0.923361,-0.046946,-0.008068,0.380966,-0.041078,-0.117756,0.249943
791,164310214,0.923362,-0.046849,-0.008112,0.380976,-0.064893,-0.076798,0.291581
792,164326881,0.923378,-0.046746,-0.008191,0.380947,-0.044197,-0.085674,0.286592
793,164343548,0.923401,-0.046625,-0.008280,0.380904,-0.054439,-0.063462,0.286139
794,164360215,0.923449,-0.046568,-0.008422,0.380792,-0.039655,-0.047531,0.277495
795,164376882,0.923495,-0.046572,-0.008516,0.380678,-0.014458,-0.057436,0.272958
796,164393549,0.923552,-0.046544,-0.008494,0.380544,-0.030479,-0.049803,0.276852
797,164410216,0.923582,-0.046513,-0.008537,0.380473,-0.019681,-0.107334,0.262311
798,164426883,0.923591,-0.046379,-0.008500,0.380468,-0.048153,-0.077965,0.291089
799,164443550,0.923568,-0.046343,-0.008621,0.380527,-0.064004,-0.057313,0.250324
800,164460217,0.923571,-0.046296,-0.008692,0.380524,-0.013561,-0.068806,0.266582
801,164476884,0.923577,-0.046235,-0.008738,0.380515,-0.063737,-0.046634,0.290597
802,164493551,0.923563,-0.046218,-0.008799,0.380550,-0.052540,-0.014340,0.291697
803,164510218,0.923531,-0.046245,-0.008912,0.380622,-0.059100,-0.038539,0.305753
804,164526885,0.923503,-0.046324,-0.009109,0.380676,-0.007434,-0.080773,0.278896
805,164543552,0.923518,-0.046355,-0.009267,0.380631,0.035867,-0.075112,0.250075
806,164560219,0.923574,-0.046382,-0.009347,0.380490,0.068305,-0.047715,0.255354
807,164576886,0.923664,-0.046402,-0.009307,0.380270,0.034856,-0.052335,0.228570
808,164593553,0.923757,-0.046425,-0.009163,0.380045,-0.009469,-0.019568,0.270599
809,164610220,0.923793,-0.046492,-0.009052,0.379951,-0.042083,-0.051927,0.256257
810,164626887,0.923788,-0.046630,-0.008996,0.379948,-0.054892,-0.038822,0.270694
811,164643554,0.923752,-0.046814,-0.009050,0.380013,-0.016530,-0.079938,0.256005
812,164660221,0.923743,-0.047008,-0.009107,0.380009,0.048434,-0.118131,0.262693
813,164676888,0.923781,-0.047093,-0.009045,0.379908,0.083982,-0.155613,0.285682
814,164693555,0.923840,-0.047040,-0.008882,0.379773,0.038498,-0.119536,0.283151
815,164710222,0.923903,-0.046941,-0.008715,0.379636,-0.034058,-0.066068,0.303401
816,164726889,0.923935,-0.046900,-0.008596,0.379565,-0.080222,-0.041161,0.250937
817,164743556,0.923935,-0.047029,-0.008665,0.379550,-0.082883,-0.009081,0.266816
818,164760223,0.923924,-0.047186,-0.008704,0.379554,-0.003448,-0.104344,0.230423
819,164776890,0.923922,-0.047277,-0.008619,0.379551,-0.027760,-0.094770,0.291400
820,164793557,0.923929,-0.047407,-0.008734,0.379514,-0.013505,-0.111908,0.274991
821,164810224,0.923952,-0.047522,-0.008703,0.379446,0.045300,-0.145699,0.296022
822,164826891,0.924003,-0.047504,-0.008697,0.379323,-0.011446,-0.169165,0.290359
823,164843558,0.924077,-0.047438,-0.008757,0.379150,0.012209,-0.142227,0.259329
824,164860225,0.924139,-0.047204,-0.008713,0.379030,-0.017959,-0.077626,0.241405
825,164876892,0.924158,-0.047063,-0.008700,0.379000,-0.049028,-0.041393,0.218864
826,164893559,0.924156,-0.046950,-0.008652,0.379020,-0.108130,-0.015998,0.251726
827,164910226,0.924115,-0.046985,-0.008829,0.379113,-0.065997,-0.059720,0.270011
828,164926893,0.924100,-0.046993,-0.008914,0.379147,-0.010512,-0.101652,0.255600
829,164943560,0.924094,-0.046931,-0.009007,0.379167,-0.046316,-0.066608,0.275238
830,164960227,0.924086,-0.046906,-0.009142,0.379185,0.001879,-0.053384,0.262802
831,164976894,0.924062,-0.046850,-0.009220,0.379248,0.009024,-0.041952,0.276352
832,164993561,0.924046,-0.046779,-0.009202,0.379297,-0.015216,-0.022977,0.271476
833,165010228,0.924016,-0.046813,-0.009246,0.379364,-0.007349,-0.009838,0.285737
834,165026895,0.924000,-0.046860,-0.009201,0.379399,-0.035946,-0.013371,0.274983
835,165043562,0.923983,-0.047006,-0.009198,0.379423,-0.018069,-0.051180,0.256081
836,165060229,0.923994,-0.047138,-0.009102,0.379382,0.020186,-0.078349,0.300013
837,165076896,0.924022,-0.047193,-0.009015,0.379308,0.005292,-0.112894,0.300505
838,165093563,0.924062,-0.047140,-0.008926,0.379219,-0.017120,-0.079374,0.233911
839,165110230,0.924098,-0.047080,-0.008866,0.379142,-0.053643,-0.028916,0.223343
840,165126897,0.924118,-0.047165,-0.008808,0.379083,-0.112343,0.020992,0.235921
841,165143564,0.924115,-0.047491,-0.008939,0.379047,-0.040263,-0.111682,0.295433
842,165160231,0.924155,-0.047582,-0.008926,0.378939,-0.013747,-0.152099,0.311145
843,165176898,0.924203,-0.047593,-0.009003,0.378818,-0.020271,-0.130075,0.320638
844,165193565,0.924259,-0.047515,-0.008998,0.378691,-0.027625,-0.080357,0.295890
845,165210232,0.924320,-0.047498,-0.009020,0.378545,-0.060264,-0.033037,0.247006
846,165226899,0.924341,-0.047549,-0.009104,0.378484,-0.072909,-0.023420,0.238546
847,165243566,0.924332,-0.047667,-0.009156,0.378490,-0.051971,-0.065063,0.215266
848,165260233,0.924295,-0.047803,-0.009254,0.378560,-0.031351,-0.106538,0.234797
849,165276900,0.924271,-0.047889,-0.009383,0.378604,0.023650,-0.112125,0.250787
850,165293567,0.924279,-0.047875,-0.009417,0.378587,0.013768,-0.096147,0.261869
851,165310234,0.924297,-0.047872,-0.009430,0.378543,0.029775,-0.070439,0.256609
852,165326901,0.924323,-0.047829,-0.009370,0.378486,0.003674,-0.066316,0.304995
853,165343568,0.924345,-0.047812,-0.009277,0.378437,-0.053422,-0.063968,0.311907
854,165360235,0.924325,-0.047868,-0.009327,0.378477,-0.056752,-0.084555,0.306445
855,165376902,0.924299,-0.047888,-0.009389,0.378536,-0.018690,-0.094013,0.261596
856,165393569,0.924306,-0.047897,-0.009434,0.378517,0.000697,-0.103199,0.273775
857,165410236,0.924338,-0.047807,-0.009410,0.378452,-0.012268,-0.069678,0.223449
858,165426903,0.924365,-0.047842,-0.009465,0.378379,-0.036441,-0.034730,0.237044
859,165443570,0.924372,-0.047830,-0.009425,0.378364,-0.016640,-0.060625,0.235967
860,165460237,0.924360,-0.047909,-0.009539,0.378383,-0.026942,-0.089545,0.273390
861,165476904,0.924369,-0.047893,-0.009603,0.378360,0.027492,-0.072185,0.285316
862,165493571,0.924382,-0.047843,-0.009662,0.378333,0.012027,-0.090476,0.283643
863,165510238,0.924406,-0.047816,-0.009635,0.378279,-0.023254,-0.053098,0.275710
864,165526905,0.924447,-0.047794,-0.009655,0.378179,-0.028126,-0.076887,0.255862
865,165543572,0.924458,-0.047766,-0.009582,0.378159,-0.052615,-0.055516,0.260124
866,165560239,0.924450,-0.047787,-0.009553,0.378177,-0.102691,-0.051283,0.275742
867,165576906,0.924417,-0.047873,-0.009652,0.378245,-0.077921,-0.086920,0.254067
868,165593573,0.924398,-0.047904,-0.009741,0.378284,-0.051768,-0.114272,0.263930
869,165610240,0.924425,-0.047896,-0.009878,0.378216,-0.039064,-0.100900,0.276045
870,165626907,0.924486,-0.047868,-0.009949,0.378068,-0.025406,-0.084479,0.283805
871,165643574,0.924527,-0.047816,-0.010105,0.377970,-0.046706,-0.081326,0.279801
872,165660241,0.924552,-0.047762,-0.010199,0.377912,-0.051377,-0.073088,0.310764
873,165676908,0.924548,-0.047764,-0.010429,0.377916,-0.016970,-0.057339,0.281480
874,165693575,0.924560,-0.047698,-0.010658,0.377889,0.043139,-0.036130,0.253895
875,165710242,0.924576,-0.047716,-0.010672,0.377846,0.040669,-0.064515,0.254376
876,165726909,0.924621,-0.047652,-0.010632,0.377747,-0.000128,-0.014387,0.297091
877,165743576,0.924638,-0.047712,-0.010629,0.377698,-0.014149,-0.055780,0.234196
878,165760243,0.924637,-0.047782,-0.010497,0.377695,-0.037354,-0.047933,0.291651
879,165776910,0.924618,-0.047829,-0.010511,0.377734,-0.062260,-0.102259,0.317475
880,165793577,0.924612,-0.047894,-0.010621,0.377737,-0.014313,-0.127665,0.283462
881,165810244,0.924632,-0.047832,-0.010655,0.377697,0.022643,-0.074006,0.276354
882,165826911,0.924666,-0.047773,-0.010626,0.377622,0.004336,-0.073839,0.232010
883,165843578,0.924700,-0.047730,-0.010548,0.377546,-0.058431,-0.039871,0.248576
884,165860245,0.924690,-0.047760,-0.010622,0.377565,-0.033241,-0.067200,0.270526
885,165876912,0.924638,-0.047691,-0.010697,0.377698,-0.023897,-0.109418,0.273729
886,165893579,0.924582,-0.047619,-0.010898,0.377838,0.013083,-0.101585,0.271392
887,165910246,0.924549,-0.047438,-0.011031,0.377938,0.043706,-0.091652,0.285051
888,165926913,0.924548,-0.047250,-0.011051,0.377963,0.028305,-0.045753,0.291590
889,165943580,0.924618,-0.047090,-0.011013,0.377812,0.009099,-0.027098,0.288611
890,165960247,0.924708,-0.046983,-0.010914,0.377610,-0.053756,0.014152,0.299330
891,165976914,0.924793,-0.046979,-0.010861,0.377403,-0.102028,0.016994,0.286351
892,165993581,0.924832,-0.047087,-0.010955,0.377292,-0.078453,0.005663,0.286406
893,166010248,0.924832,-0.047207,-0.011082,0.377273,-0.039775,-0.032615,0.298160
894,166026915,0.924829,-0.047402,-0.011289,0.377249,0.040793,-0.046694,0.240860
895,166043582,0.924880,-0.047423,-0.011356,0.377120,0.083077,-0.011492,0.197277
896,166060249,0.924929,-0.047495,-0.011199,0.376995,0.037939,0.005917,0.216857
897,166076916,0.924960,-0.047705,-0.010990,0.376898,-0.038877,0.023356,0.273924
898,166093583,0.924976,-0.048064,-0.010954,0.376815,-0.021019,-0.109840,0.342572
899,166110250,0.924973,-0.048251,-0.010839,0.376802,0.030268,-0.162828,0.324663
900,166126917,0.924957,-0.048204,-0.010709,0.376850,-0.004525,-0.153648,0.305272
901,166143584,0.924963,-0.048136,-0.010692,0.376844,-0.000563,-0.104759,0.270514
902,166160251,0.924987,-0.048044,-0.010601,0.376801,0.001351,-0.009906,0.254662
903,166176918,0.924996,-0.048060,-0.010439,0.376780,-0.032254,-0.002953,0.210106
904,166193585,0.924993,-0.048155,-0.010247,0.376782,-0.068712,-0.036202,0.236574
905,166210252,0.924957,-0.048262,-0.010166,0.376857,-0.094043,-0.062060,0.251256
906,166226919,0.924931,-0.048352,-0.010206,0.376909,-0.041407,-0.116245,0.270186
907,166243586,0.924929,-0.048381,-0.010255,0.376909,-0.020759,-0.096935,0.281340
908,166260253,0.924954,-0.048462,-0.010366,0.376833,0.009490,-0.061515,0.300612
909,166276920,0.924998,-0.048514,-0.010323,0.376721,0.037013,-0.048102,0.281301
910,166293587,0.925035,-0.048588,-0.010192,0.376623,-0.004273,-0.047960,0.282981
911,166310254,0.925049,-0.048625,-0.010028,0.376590,-0.019384,-0.084509,0.272288
912,166326921,0.925030,-0.048613,-0.009857,0.376641,-0.075579,-0.090778,0.294093
913,166343588,0.924980,-0.048667,-0.009900,0.376757,-0.063485,-0.091985,0.272113
914,166360255,0.924926,-0.048653,-0.009967,0.376890,-0.003765,-0.122951,0.260485
915,166376922,0.924902,-0.048602,-0.009983,0.376953,0.009349,-0.113015,0.251446
916,166393589,0.924901,-0.048479,-0.009942,0.376973,-0.006772,-0.083322,0.269428
917,166410256,0.924929,-0.048411,-0.009873,0.376916,-0.046075,-0.045017,0.265620
918,166426923,0.924937,-0.048349,-0.009859,0.376905,-0.054470,-0.071501,0.298634
919,166443590,0.924931,-0.048290,-0.009885,0.376926,-0.092671,-0.052396,0.308764
920,166460257,0.924933,-0.048302,-0.010101,0.376913,-0.047114,-0.071902,0.297893
921,166476924,0.924947,-0.048324,-0.010251,0.376873,0.028710,-0.075668,0.233262
922,166493591,0.925002,-0.048297,-0.010304,0.376741,0.050103,-0.071045,0.241129
923,166510258,0.925082,-0.048215,-0.010223,0.376555,0.011123,-0.062182,0.260665
924,166526925,0.925152,-0.048121,-0.010131,0.376398,-0.055267,-0.067188,0.302782
925,166543592,0.925210,-0.048050,-0.010134,0.376265,-0.091892,-0.060570,0.295959
926,166560259,0.925247,-0.047985,-0.010224,0.376179,-0.086757,-0.043746,0.317501
927,166576926,0.925278,-0.047990,-0.010343,0.376099,-0.053153,-0.020902,0.294607
928,166593593,0.925279,-0.047989,-0.010501,0.376093,-0.008893,-0.024788,0.230478
929,166610260,0.925255,-0.048073,-0.010617,0.376138,0.025072,-0.075486,0.266942
930,166626927,0.925231,-0.047976,-0.010582,0.376211,0.015412,-0.055105,0.277222
931,166643594,0.925198,-0.047936,-0.010628,0.376295,-0.003795,-0.059621,0.257052
932,166660261,0.925180,-0.047923,-0.010543,0.376344,-0.010073,-0.029912,0.297436
933,166676928,0.925166,-0.047978,-0.010510,0.376372,-0.050397,-0.084259,0.323756
934,166693595,0.925171,-0.048048,-0.010624,0.376348,-0.002880,-0.090085,0.300303
935,166710262,0.925198,-0.047941,-0.010639,0.376294,0.017147,-0.071339,0.257120
936,166726929,0.925236,-0.047862,-0.010592,0.376211,-0.022265,-0.016504,0.255085
937,166743596,0.925281,-0.047788,-0.010495,0.376113,-0.062816,-0.022459,0.249775
938,166760263,0.925309,-0.047810,-0.010499,0.376043,-0.083798,-0.009283,0.264601
939,166776930,0.925300,-0.047859,-0.010589,0.376056,-0.044393,-0.018331,0.252568
940,166793597,0.925252,-0.047894,-0.010655,0.376166,-0.048674,-0.024705,0.274194
941,166810264,0.925182,-0.047963,-0.010850,0.376325,-0.026002,-0.046484,0.277158
942,166826931,0.925139,-0.048026,-0.011027,0.376416,0.037448,-0.061296,0.269676
943,166843598,0.925125,-0.048073,-0.011087,0.376443,0.042346,-0.057650,0.299445
944,166860265,0.925162,-0.048109,-0.011080,0.376347,0.047449,-0.063184,0.283664
945,166876932,0.925210,-0.048107,-0.011014,0.376232,0.002780,-0.065110,0.282434
946,166893599,0.925258,-0.048115,-0.010934,0.376115,-0.031168,-0.022713,0.279152
947,166910266,0.925260,-0.048202,-0.010867,0.376102,-0.038293,-0.035285,0.277565
948,166926933,0.925242,-0.048328,-0.010904,0.376128,-0.018198,-0.055728,0.279986
949,166943600,0.925227,-0.048433,-0.010940,0.376152,0.040117,-0.100144,0.231095
950,166960267,0.925235,-0.048444,-0.010894,0.376132,0.049477,-0.079080,0.240393
951,166976934,0.925289,-0.048395,-0.010738,0.376008,-0.039694,-0.061196,0.229810
952,166993601,0.925349,-0.048643,-0.010694,0.375832,-0.051457,-0.087766,0.283011
953,167010268,0.925406,-0.048723,-0.010645,0.375681,-0.013218,-0.145385,0.296477
954,167026935,0.925445,-0.048723,-0.010596,0.375586,-0.054315,-0.143962,0.333858
955,167043602,0.925476,-0.048636,-0.010633,0.375522,-0.059824,-0.116381,0.288758
956,167060269,0.925488,-0.048563,-0.010757,0.375497,-0.020255,-0.101998,0.260769
957,167076936,0.925490,-0.048469,-0.010823,0.375502,0.004349,-0.061723,0.214416
958,167093603,0.925473,-0.048327,-0.010826,0.375563,-0.041050,-0.037604,0.231501
959,167110270,0.925443,-0.048249,-0.010868,0.375645,-0.056053,-0.035333,0.235535
960,167126937,0.925420,-0.048231,-0.010944,0.375701,-0.050758,-0.071268,0.285248
961,167143604,0.925388,-0.048178,-0.011058,0.375785,-0.043205,-0.070831,0.276295
962,167160271,0.925373,-0.048142,-0.011214,0.375821,-0.043667,-0.044118,0.300581
963,167176938,0.925337,-0.048137,-0.011400,0.375904,0.020026,-0.046646,0.297809
964,167193605,0.925320,-0.048118,-0.011458,0.375947,0.052145,-0.061612,0.258343
965,167210272,0.925331,-0.048089,-0.011425,0.375926,0.042181,-0.075804,0.268877
966,167226939,0.925373,-0.047971,-0.011291,0.375840,-0.010836,-0.090479,0.251102
967,167243606,0.925420,-0.047840,-0.011208,0.375744,-0.074612,-0.021861,0.259204
968,167260273,0.925432,-0.047801,-0.011234,0.375719,-0.079869,-0.023799,0.248614
969,167276940,0.925392,-0.047788,-0.011284,0.375818,-0.068715,-0.026621,0.247005
970,167293607,0.925328,-0.047828,-0.011402,0.375967,-0.051120,-0.049967,0.288425
971,167310274,0.925275,-0.047777,-0.011481,0.376101,-0.025048,-0.057975,0.296144
972,167326941,0.925237,-0.047795,-0.011652,0.376187,0.008658,-0.063650,0.303779
973,167343608,0.925227,-0.047715,-0.011759,0.376217,0.030479,-0.055559,0.272433
974,167360275,0.925234,-0.047652,-0.011833,0.376206,0.003648,-0.041044,0.264819
975,167376942,0.925232,-0.047586,-0.011861,0.376220,0.006660,-0.037516,0.266720
976,167393609,0.925234,-0.047487,-0.011845,0.376228,-0.013237,-0.013084,0.266551
977,167410276,0.925243,-0.047464,-0.011911,0.376206,-0.023866,-0.034930,0.242539
978,167426943,0.925282,-0.047490,-0.011946,0.376106,0.006482,-0.038634,0.250048
979,167443610,0.925340,-0.047487,-0.011902,0.375964,0.004184,-0.039756,0.251599
980,167460277,0.925398,-0.047478,-0.011822,0.375826,-0.006550,-0.065221,0.263382
981,167476944,0.925436,-0.047472,-0.011730,0.375736,-0.059112,-0.055986,0.286364
982,167493611,0.925450,-0.047468,-0.011796,0.375700,-0.048931,-0.073135,0.313887
983,167510278,0.925450,-0.047435,-0.011869,0.375701,-0.034999,-0.057914,0.271439
984,167526945,0.925443,-0.047412,-0.012023,0.375718,-0.001805,-0.032463,0.283441
985,167543612,0.925449,-0.047401,-0.012134,0.375699,0.039548,-0.015928,0.208600
986,167560279,0.925455,-0.047445,-0.012147,0.375679,0.069966,-0.028888,0.240217
987,167576946,0.925474,-0.047337,-0.011967,0.375652,0.015536,-0.040634,0.273467
988,167593613,0.925474,-0.047373,-0.011814,0.375653,-0.081804,-0.031603,0.258815
989,167610280,0.925466,-0.047483,-0.011801,0.375658,-0.077204,-0.042920,0.301851
990,167626947,0.925440,-0.047641,-0.011809,0.375701,-0.051733,-0.090869,0.333498
991,167643614,0.925418,-0.047738,-0.011947,0.375739,0.030953,-0.131257,0.298368
992,167660281,0.925430,-0.047614,-0.011956,0.375726,0.051690,-0.100780,0.253032
993,167676948,0.925443,-0.047420,-0.011854,0.375721,-0.002647,0.001105,0.232457
994,167693615,0.925459,-0.047327,-0.011715,0.375697,-0.066254,-0.009539,0.227424
995,167710282,0.925432,-0.047395,-0.011743,0.375754,-0.089050,-0.040361,0.256830
996,167726949,0.925401,-0.047424,-0.011844,0.375823,-0.029313,-0.088566,0.260503
997,167743616,0.925361,-0.047328,-0.011915,0.375932,-0.029061,-0.082881,0.270295
998,167760283,0.925344,-0.047263,-0.012044,0.375978,-0.014590,-0.064406,0.259601
999,167776950,0.925358,-0.047153,-0.012105,0.375956,0.016940,-0.002993,0.272642
1000,167793617,0.925381,-0.047176,-0.012151,0.375894,0.038714,-0.024550,0.280378
1001,167810284,0.925413,-0.047159,-0.012036,0.375822,0.032309,-0.050560,0.285566
1002,167826951,0.925465,-0.047196,-0.011935,0.375693,-0.038904,-0.047360,0.275123
1003,167843618,0.925518,-0.047303,-0.011882,0.375549,-0.020342,-0.074409,0.257194
1004,167860285,0.925579,-0.047401,-0.011809,0.375390,-0.022437,-0.099532,0.267586
1005,167876952,0.925634,-0.047497,-0.011761,0.375242,-0.035220,-0.113854,0.266951
1006,167893619,0.925685,-0.047505,-0.011801,0.375116,0.009065,-0.138759,0.249025
1007,167910286,0.925753,-0.047309,-0.011755,0.374974,-0.023482,-0.088982,0.194452
1008,167926953,0.925780,-0.047222,-0.011729,0.374918,-0.066189,-0.033319,0.197422
1009,167943620,0.925772,-0.047256,-0.011716,0.374934,-0.052299,-0.071224,0.282480
1010,167960287,0.925775,-0.047210,-0.011699,0.374934,-0.059997,-0.133102,0.304149
1011,167976954,0.925799,-0.047123,-0.011752,0.374883,-0.070508,-0.129698,0.309934
1012,167993621,0.925844,-0.046980,-0.011861,0.374787,-0.077398,-0.073632,0.281667
1013,168010288,0.925902,-0.046817,-0.011966,0.374660,-0.056147,-0.043131,0.247024
1014,168026955,0.925940,-0.046683,-0.012088,0.374581,-0.088444,-0.034047,0.249821
1015,168043622,0.925947,-0.046553,-0.012244,0.374573,-0.037844,-0.016453,0.230440
1016,168060289,0.925927,-0.046455,-0.012382,0.374630,-0.045476,-0.019726,0.243366
1017,168076956,0.925906,-0.046339,-0.012508,0.374692,-0.029344,-0.037502,0.251390
1018,168093623,0.925903,-0.046176,-0.012658,0.374714,-0.063146,-0.051169,0.289490
1019,168110290,0.925925,-0.046039,-0.012831,0.374672,-0.052975,-0.042750,0.288254
1020,168126957,0.925944,-0.045937,-0.013073,0.374628,-0.044089,-0.007756,0.279174
1021,168143624,0.925954,-0.045819,-0.013301,0.374611,-0.032600,-0.008411,0.293906
1022,168160291,0.925922,-0.045731,-0.013490,0.374693,-0.039767,0.030829,0.291931
1023,168176958,0.925862,-0.045732,-0.013689,0.374833,-0.002579,0.005970,0.271346
1024,168193625,0.925820,-0.045747,-0.013761,0.374934,0.007948,-0.018021,0.270885
1025,168210292,0.925807,-0.045786,-0.013883,0.374957,0.016555,-0.051386,0.245196
1026,168226959,0.925830,-0.045814,-0.013963,0.374894,-0.003295,-0.053008,0.241919
1027,168243626,0.925879,-0.045847,-0.014037,0.374765,0.003306,-0.076045,0.241448
1028,168260293,0.925923,-0.045828,-0.014060,0.374657,-0.021053,-0.064334,0.253791
1029,168276960,0.925947,-0.045820,-0.014150,0.374598,-0.051757,-0.049603,0.284236
1030,168293627,0.925959,-0.045851,-0.014329,0.374558,-0.018361,-0.064004,0.305174
1031,168310294,0.925968,-0.045856,-0.014501,0.374527,0.017460,-0.050680,0.296339
1032,168326961,0.925993,-0.045842,-0.014669,0.374461,0.052237,-0.054028,0.258493
1033,168343628,0.926061,-0.045825,-0.014725,0.374292,0.023571,-0.029218,0.247299
1034,168360295,0.926124,-0.045859,-0.014792,0.374129,-0.003009,0.003425,0.269777
1035,168376962,0.926183,-0.045908,-0.014803,0.373976,-0.040696,-0.046126,0.289250
1036,168393629,0.926219,-0.045958,-0.014884,0.373879,-0.041846,-0.040958,0.256547
1037,168410296,0.926248,-0.046003,-0.014978,0.373798,-0.038035,-0.035738,0.243804
1038,168426963,0.926279,-0.046155,-0.015159,0.373694,0.018301,-0.052045,0.259588
1039,168443630,0.926321,-0.046222,-0.015219,0.373580,0.022293,-0.107050,0.273574
1040,168460297,0.926377,-0.046256,-0.015303,0.373434,-0.018548,-0.098639,0.312446
1041,168476964,0.926401,-0.046207,-0.015422,0.373375,-0.041580,-0.062793,0.310822
1042,168493631,0.926406,-0.046188,-0.015703,0.373353,-0.010608,-0.023844,0.255252
1043,168510298,0.926398,-0.046176,-0.015913,0.373365,0.037184,-0.017413,0.245463
1044,168526965,0.926407,-0.046243,-0.016047,0.373328,0.047547,-0.011219,0.252031
1045,168543632,0.926458,-0.046234,-0.016054,0.373202,0.051598,-0.005407,0.204465
1046,168560299,0.926511,-0.046353,-0.015982,0.373060,0.020251,-0.089414,0.255286
1047,168576966,0.926599,-0.046230,-0.015844,0.372862,-0.016410,-0.071994,0.234029
1048,168593633,0.926668,-0.046200,-0.015838,0.372694,-0.062627,-0.085857,0.262593
1049,168610300,0.926742,-0.046201,-0.015866,0.372510,-0.041566,-0.044176,0.279428
1050,168626967,0.926814,-0.046202,-0.015900,0.372329,-0.045502,-0.059554,0.294210
1051,168643634,0.926887,-0.046253,-0.015981,0.372137,0.007493,-0.088018,0.284524
1052,168660301,0.926961,-0.046137,-0.015938,0.371968,0.001686,-0.068970,0.266479
1053,168676968,0.927005,-0.046064,-0.015877,0.371871,-0.045823,-0.033541,0.267768
1054,168693635,0.927024,-0.046037,-0.015836,0.371829,-0.056986,-0.022462,0.257834
1055,168710302,0.927018,-0.046048,-0.015847,0.371841,-0.030395,-0.040934,0.258182
1056,168726969,0.926992,-0.046035,-0.015816,0.371908,-0.032170,-0.078390,0.257568
1057,168743636,0.926950,-0.045947,-0.015796,0.372025,-0.034122,-0.058762,0.279078
1058,168760303,0.926911,-0.045853,-0.015793,0.372135,-0.022773,-0.045572,0.283145
1059,168776970,0.926874,-0.045748,-0.015770,0.372240,-0.041061,-0.013714,0.280705
1060,168793637,0.926864,-0.045728,-0.015800,0.372268,-0.054500,-0.016437,0.305075
1061,168810304,0.926863,-0.045736,-0.015827,0.372266,-0.048864,-0.021514,0.264880
1062,168826971,0.926856,-0.045791,-0.015900,0.372273,-0.002609,-0.025664,0.267016
1063,168843638,0.926846,-0.045810,-0.015916,0.372296,-0.015346,-0.047884,0.251331
1064,168860305,0.926840,-0.045844,-0.015951,0.372306,-0.007629,-0.039291,0.266858
1065,168876972,0.926872,-0.045852,-0.015953,0.372225,0.048584,-0.038827,0.262165
1066,168893639,0.926950,-0.045752,-0.015839,0.372048,0.057657,-0.041832,0.209310
1067,168910306,0.927036,-0.045644,-0.015531,0.371861,-0.063264,0.050497,0.265371
1068,168926973,0.927083,-0.045659,-0.015352,0.371748,-0.148354,0.069178,0.273763
1069,168943640,0.927072,-0.046031,-0.015444,0.371726,-0.084227,-0.016395,0.296579
1070,168960307,0.927036,-0.046325,-0.015564,0.371773,0.048395,-0.106177,0.322056
1071,168976974,0.927007,-0.046356,-0.015498,0.371846,0.077674,-0.115711,0.272539
1072,168993641,0.927005,-0.046257,-0.015378,0.371869,0.037281,-0.066434,0.273524
1073,169010308,0.927027,-0.046217,-0.015223,0.371823,-0.031694,0.012178,0.267774
1074,169026975,0.927034,-0.046296,-0.015039,0.371803,-0.044510,-0.004523,0.239930
1075,169043642,0.927014,-0.046411,-0.014864,0.371846,-0.100354,-0.028589,0.259324
1076,169060309,0.926976,-0.046562,-0.014930,0.371920,-0.053115,-0.078351,0.266232
1077,169076976,0.926951,-0.046651,-0.014971,0.371969,0.003585,-0.077455,0.239520
1078,169093643,0.926945,-0.046655,-0.014973,0.371983,0.023594,-0.058166,0.270564
1079,169110310,0.926949,-0.046648,-0.014895,0.371978,-0.022143,-0.046346,0.306058
1080,169126977,0.926946,-0.046700,-0.014838,0.371982,-0.026896,-0.026678,0.298826
1081,169143644,0.926951,-0.046740,-0.014784,0.371966,-0.039225,-0.051976,0.279344
1082,169160311,0.926953,-0.046820,-0.014804,0.371950,-0.010312,-0.088621,0.281075
1083,169176978,0.926963,-0.046831,-0.014809,0.371923,0.011010,-0.068341,0.279468
1084,169193645,0.926985,-0.046816,-0.014798,0.371871,0.026905,-0.083800,0.247312
1085,169210312,0.927010,-0.046714,-0.014626,0.371828,-0.014211,-0.056440,0.262419
1086,169226979,0.927019,-0.046631,-0.014556,0.371820,-0.067999,-0.053490,0.268855
1087,169243646,0.927011,-0.046578,-0.014534,0.371846,-0.055988,-0.059905,0.270525
1088,169260313,0.926997,-0.046568,-0.014588,0.371880,-0.055068,-0.059645,0.286160
1089,169276980,0.926984,-0.046560,-0.014685,0.371909,0.008869,-0.068219,0.263379
1090,169293647,0.926987,-0.046506,-0.014689,0.371909,0.016521,-0.044784,0.300796
1091,169310314,0.927008,-0.046439,-0.014664,0.371867,0.030509,-0.040420,0.248137
1092,169326981,0.927035,-0.046372,-0.014526,0.371812,-0.027658,-0.035144,0.277529
1093,169343648,0.927033,-0.046353,-0.014486,0.371822,-0.040108,-0.030482,0.252656
1094,169360315,0.927010,-0.046314,-0.014429,0.371887,-0.070800,-0.045455,0.256633
1095,169376982,0.926968,-0.046324,-0.014500,0.371987,-0.047384,-0.065304,0.235795
1096,169393649,0.926918,-0.046342,-0.014528,0.372108,-0.018573,-0.060917,0.250583
1097,169410316,0.926874,-0.046328,-0.014577,0.372216,0.006128,-0.087448,0.294528
1098,169426983,0.926843,-0.046246,-0.014602,0.372304,-0.008263,-0.092226,0.298050
1099,169443650,0.926826,-0.046091,-0.014619,0.372364,0.010038,-0.082183,0.250395
1100,169460317,0.926813,-0.045944,-0.014649,0.372414,-0.019317,-0.038233,0.284071
1101,169476984,0.926826,-0.045806,-0.014689,0.372396,0.003471,-0.016251,0.247886
1102,169493651,0.926844,-0.045697,-0.014682,0.372366,-0.003943,0.052820,0.196397
1103,169510318,0.926828,-0.045708,-0.014592,0.372409,0.023465,0.001438,0.230706
1104,169526985,0.926797,-0.045656,-0.014379,0.372499,-0.068481,0.013948,0.299326
1105,169543652,0.926754,-0.045742,-0.014394,0.372595,-0.043358,-0.064772,0.279215
1106,169560319,0.926733,-0.045815,-0.014341,0.372640,0.012753,-0.075664,0.324420
1107,169576986,0.926765,-0.045789,-0.014258,0.372569,-0.014289,-0.073926,0.304812
1108,169593653,0.926825,-0.045787,-0.014242,0.372419,-0.022256,-0.063289,0.300838
1109,169610320,0.926879,-0.045706,-0.014136,0.372300,-0.009720,-0.031493,0.253978
1110,169626987,0.926894,-0.045614,-0.014026,0.372277,-0.054832,0.001858,0.210707
1111,169643654,0.926862,-0.045627,-0.014007,0.372357,-0.058266,-0.018958,0.243733
1112,169660321,0.926814,-0.045647,-0.014027,0.372473,-0.039124,-0.033068,0.254517
1113,169676988,0.926741,-0.045663,-0.014119,0.372648,-0.005617,-0.088131,0.271987
1114,169693655,0.926685,-0.045588,-0.014154,0.372795,0.017968,-0.073320,0.278715
1115,169710322,0.926664,-0.045470,-0.014200,0.372860,0.058807,-0.049415,0.272944
1116,169726989,0.926664,-0.045278,-0.014022,0.372889,0.001996,0.019315,0.265226
1117,169743656,0.926639,-0.045223,-0.013896,0.372965,-0.037810,0.043517,0.281712
1118,169760323,0.926572,-0.045308,-0.013781,0.373125,-0.051009,0.010548,0.319241
1119,169776990,0.926458,-0.045437,-0.013713,0.373395,-0.003252,-0.007648,0.280827
1120,169793657,0.926330,-0.045584,-0.013580,0.373698,0.044841,-0.077000,0.259474
1121,169810324,0.926220,-0.045649,-0.013417,0.373968,0.045412,-0.113844,0.287535
1122,169826991,0.926123,-0.045641,-0.013291,0.374214,0.060269,-0.128172,0.287324
1123,169843658,0.926075,-0.045482,-0.013095,0.374359,0.027471,-0.137410,0.255076
1124,169860325,0.926039,-0.045275,-0.012856,0.374483,-0.030429,-0.096636,0.236624
1125,169876992,0.926008,-0.045070,-0.012634,0.374592,-0.109529,-0.039476,0.244330
1126,169893659,0.925959,-0.045186,-0.012620,0.374699,-0.096773,-0.099916,0.302121
1127,169910326,0.925951,-0.045147,-0.012614,0.374723,-0.012213,-0.135274,0.279163
1128,169926993,0.925951,-0.044987,-0.012556,0.374744,-0.054002,-0.129390,0.305069
1129,169943660,0.925953,-0.044728,-0.012510,0.374773,-0.064375,-0.066604,0.294708
1130,169960327,0.925967,-0.044530,-0.012510,0.374761,-0.129356,-0.034435,0.266139
1131,169976994,0.925955,-0.044498,-0.012695,0.374788,-0.091167,-0.015229,0.251606
1132,169993661,0.925944,-0.044406,-0.012763,0.374823,-0.083230,-0.002194,0.273693
1133,170010328,0.925912,-0.044376,-0.012936,0.374900,-0.068876,-0.029952,0.235617
1134,170026995,0.925874,-0.044357,-0.013084,0.374992,-0.041624,-0.037792,0.247458
1135,170043662,0.925882,-0.044312,-0.013267,0.374972,-0.029445,-0.075828,0.285995
1136,170060329,0.925936,-0.044212,-0.013333,0.374848,-0.039666,-0.065985,0.290606
1137,170076996,0.926028,-0.044149,-0.013462,0.374623,-0.059095,-0.045008,0.289640
1138,170093663,0.926131,-0.044072,-0.013575,0.374372,-0.063082,-0.017661,0.267751
1139,170110330,0.926200,-0.044097,-0.013686,0.374196,-0.083466,0.001810,0.255669
1140,170126997,0.926247,-0.044148,-0.013836,0.374068,-0.049381,-0.032149,0.268224
1141,170143664,0.926274,-0.044172,-0.013994,0.373991,-0.071235,-0.057165,0.287470
1142,170160331,0.926299,-0.044154,-0.014159,0.373926,-0.045428,-0.077708,0.259740
1143,170176998,0.926326,-0.044145,-0.014342,0.373853,-0.070474,-0.041945,0.296580
1144,170193665,0.926350,-0.044142,-0.014596,0.373784,-0.013237,-0.016613,0.267979
1145,170210332,0.926379,-0.044154,-0.014765,0.373704,0.008532,-0.013597,0.257056
1146,170226999,0.926428,-0.044184,-0.014862,0.373576,0.025495,-0.040371,0.266778
1147,170243666,0.926505,-0.044161,-0.014932,0.373385,-0.006210,-0.005282,0.290981
1148,170260333,0.926587,-0.044240,-0.015039,0.373167,0.030706,0.013187,0.270092
1149,170277000,0.926656,-0.044335,-0.015042,0.372984,0.040147,0.021826,0.272194
1150,170293667,0.926694,-0.044461,-0.014965,0.372878,0.074588,-0.020512,0.253672
1151,170310334,0.926720,-0.044580,-0.014820,0.372805,0.034575,-0.054991,0.275182
1152,170327001,0.926749,-0.044627,-0.014686,0.372731,0.022551,-0.098439,0.238933
1153,170343668,0.926794,-0.044672,-0.014606,0.372617,-0.002342,-0.107249,0.291301
1154,170360335,0.926877,-0.044613,-0.014559,0.372421,-0.020035,-0.078522,0.270572
1155,170377002,0.926969,-0.044580,-0.014569,0.372194,-0.044683,-0.082043,0.279965
1156,170393669,0.927052,-0.044537,-0.014658,0.371990,-0.026660,-0.074365,0.271327
1157,170410336,0.927124,-0.044480,-0.014799,0.371811,-0.028223,-0.044934,0.259668
1158,170427003,0.927208,-0.044435,-0.014948,0.371602,0.013436,-0.042187,0.260504
1159,170443670,0.927297,-0.044400,-0.015012,0.371380,0.030008,-0.071428,0.248881
1160,170460337,0.927381,-0.044356,-0.015132,0.371171,0.044844,-0.045906,0.237635
1161,170477004,0.927446,-0.044239,-0.015052,0.371027,0.010706,-0.065166,0.247421
1162,170493671,0.927475,-0.044149,-0.015085,0.370962,-0.044674,-0.010832,0.276240
1163,170510338,0.927483,-0.044096,-0.015146,0.370946,-0.018724,-0.014720,0.286039
1164,170527005,0.927456,-0.044132,-0.015240,0.371007,-0.018642,-0.011265,0.348652
1165,170543672,0.927419,-0.044161,-0.015232,0.371096,-0.005523,-0.062553,0.318989
1166,170560339,0.927385,-0.044159,-0.015248,0.371181,0.009415,-0.061361,0.279652
1167,170577006,0.927359,-0.044086,-0.015141,0.371259,0.005019,-0.045403,0.219637
1168,170593673,0.927321,-0.044053,-0.015031,0.371362,-0.018654,-0.035380,0.265583
1169,170610340,0.927297,-0.043996,-0.015000,0.371430,-0.036783,-0.068063,0.231991
1170,170627007,0.927279,-0.043933,-0.015015,0.371482,-0.042645,-0.066237,0.265241
1171,170643674,0.927261,-0.043818,-0.015060,0.371537,-0.032545,-0.057702,0.246094
1172,170660341,0.927253,-0.043699,-0.015102,0.371569,-0.045982,-0.033413,0.244598
1173,170677008,0.927231,-0.043640,-0.015177,0.371628,-0.035756,-0.010000,0.291677
1174,170693675,0.927201,-0.043579,-0.015239,0.371708,-0.018378,-0.025445,0.260427
1175,170710342,0.927157,-0.043556,-0.015280,0.371819,-0.021721,-0.053160,0.303779
1176,170727009,0.927131,-0.043459,-0.015266,0.371896,-0.052172,-0.017193,0.275614
1177,170743676,0.927117,-0.043491,-0.015406,0.371920,-0.061049,-0.031090,0.273263
1178,170760343,0.927100,-0.043526,-0.015562,0.371953,-0.029399,-0.035951,0.273265
1179,170777010,0.927081,-0.043549,-0.015793,0.371989,0.025486,-0.068535,0.278269
1180,170793677,0.927095,-0.043460,-0.015939,0.371957,0.054202,-0.052504,0.263414
1181,170810344,0.927135,-0.043295,-0.015991,0.371873,0.045075,-0.000879,0.219252
1182,170827011,0.927182,-0.043217,-0.015861,0.371772,-0.013209,0.058768,0.210731
1183,170843678,0.927215,-0.043325,-0.015792,0.371680,-0.094301,0.056234,0.252079
1184,170860345,0.927209,-0.043801,-0.015942,0.371632,0.031248,-0.127430,0.267851
1185,170877012,0.927222,-0.043796,-0.015807,0.371606,0.052015,-0.162790,0.298478
1186,170893679,0.927210,-0.043793,-0.015756,0.371640,0.011684,-0.180037,0.298147
1187,170910346,0.927211,-0.043580,-0.015584,0.371668,0.001377,-0.111492,0.258766
1188,170927013,0.927212,-0.043437,-0.015429,0.371689,-0.096231,-0.064491,0.277725
1189,170943680,0.927196,-0.043410,-0.015321,0.371737,-0.075328,-0.052974,0.294743
1190,170960347,0.927173,-0.043383,-0.015212,0.371803,-0.126088,-0.057436,0.284186
1191,170977014,0.927126,-0.043443,-0.015241,0.371910,-0.093582,-0.099123,0.248020
1192,170993681,0.927072,-0.043516,-0.015273,0.372035,-0.085734,-0.122466,0.284770
1193,171010348,0.927020,-0.043454,-0.015334,0.372169,-0.089757,-0.131452,0.280618
1194,171027015,0.926970,-0.043381,-0.015525,0.372295,-0.031012,-0.143949,0.265153
1195,171043682,0.926963,-0.043198,-0.015626,0.372331,-0.027033,-0.119803,0.258406
1196,171060349,0.926983,-0.042976,-0.015757,0.372301,-0.063238,-0.060055,0.246533
1197,171077016,0.927004,-0.042809,-0.015955,0.372259,-0.055058,-0.049242,0.279975
1198,171093683,0.927015,-0.042635,-0.016234,0.372239,-0.005618,-0.079528,0.275023
1199,171110350,0.927039,-0.042424,-0.016484,0.372193,0.024354,-0.080589,0.263093
1200,171127017,0.927076,-0.042132,-0.016627,0.372127,0.053361,-0.091385,0.254188
1201,171143684,0.927128,-0.041769,-0.016687,0.372037,0.006511,-0.044671,0.241496
1202,171160351,0.927191,-0.041413,-0.016789,0.371915,-0.046672,-0.027135,0.274173
1203,171177018,0.927235,-0.041034,-0.016854,0.371842,-0.068926,-0.001673,0.275737
1204,171193685,0.927227,-0.040754,-0.017064,0.371886,-0.087044,0.016628,0.310978
1205,171210352,0.927195,-0.040525,-0.017367,0.371975,-0.048103,0.009391,0.266236
1206,171227019,0.927157,-0.040375,-0.017734,0.372069,0.026635,0.007232,0.264805
1207,171243686,0.927144,-0.040169,-0.017932,0.372114,0.077495,-0.004723,0.262557
1208,171260353,0.927152,-0.039963,-0.017999,0.372113,0.013002,-0.026541,0.303038
1209,171277020,0.927188,-0.039750,-0.018109,0.372040,-0.019987,-0.012253,0.320096
1210,171293687,0.927227,-0.039525,-0.018169,0.371965,-0.058703,0.057675,0.295300
1211,171310354,0.927247,-0.039514,-0.018393,0.371906,-0.024366,0.072928,0.305335
1212,171327021,0.927276,-0.039510,-0.018528,0.371828,-0.015296,0.052429,0.200599
1213,171343688,0.927300,-0.039796,-0.018770,0.371725,0.051144,0.043801,0.243540
1214,171360355,0.927314,-0.039931,-0.018745,0.371675,0.117711,-0.101303,0.237566
1215,171377022,0.927334,-0.039842,-0.018541,0.371646,0.006015,-0.069778,0.323428
1216,171393689,0.927340,-0.039748,-0.018559,0.371640,-0.023214,-0.031566,0.266099
1217,171410356,0.927325,-0.039785,-0.018460,0.371678,-0.031352,-0.007797,0.320477
1218,171427023,0.927310,-0.039819,-0.018494,0.371711,-0.035179,-0.048413,0.306855
1219,171443690,0.927301,-0.039861,-0.018534,0.371726,0.017312,-0.046050,0.251993
1220,171460357,0.927272,-0.039761,-0.018472,0.371813,-0.016962,-0.026183,0.262075
1221,171477024,0.927238,-0.039727,-0.018420,0.371904,-0.045699,-0.019769,0.228544
1222,171493691,0.927220,-0.039700,-0.018368,0.371955,-0.055578,-0.032832,0.267033
1223,171510358,0.927218,-0.039720,-0.018408,0.371954,-0.094532,-0.039733,0.275827
1224,171527025,0.927203,-0.039750,-0.018610,0.371980,-0.070765,-0.041110,0.297168
1225,171543692,0.927173,-0.039773,-0.018780,0.372044,-0.037016,-0.007858,0.261812
1226,171560359,0.927119,-0.039899,-0.019021,0.372152,0.024786,-0.026817,0.264750
1227,171577026,0.927074,-0.039948,-0.019060,0.372255,0.043329,-0.049933,0.278528
1228,171593693,0.927059,-0.039965,-0.019099,0.372290,0.043918,-0.065555,0.258263
1229,171610360,0.927087,-0.039927,-0.019034,0.372227,0.038338,-0.039725,0.286781
1230,171627027,0.927134,-0.039849,-0.018950,0.372122,-0.039595,0.007333,0.316652
1231,171643694,0.927152,-0.039854,-0.018901,0.372079,-0.077204,0.020205,0.289191
1232,171660361,0.927133,-0.039997,-0.019021,0.372105,-0.020170,0.042415,0.305287
1233,171677028,0.927093,-0.040122,-0.019015,0.372192,0.021335,0.029029,0.271622
1234,171693695,0.927033,-0.040247,-0.018928,0.372333,0.044895,0.046727,0.210474
1235,171710362,0.926980,-0.040428,-0.018614,0.372460,-0.021897,0.012131,0.227983
1236,171727029,0.926938,-0.040772,-0.018462,0.372536,-0.078334,-0.022192,0.294612
1237,171743696,0.926927,-0.041127,-0.018433,0.372526,0.000346,-0.133908,0.254897
1238,171760363,0.926935,-0.041237,-0.018219,0.372503,-0.028822,-0.087895,0.290787
1239,171777030,0.926928,-0.041326,-0.018209,0.372513,-0.038280,-0.047711,0.284533
1240,171793697,0.926926,-0.041471,-0.018121,0.372506,-0.003187,-0.023929,0.270811
1241,171810364,0.926938,-0.041630,-0.018016,0.372461,0.006017,-0.020679,0.231420
1242,171827031,0.926947,-0.041759,-0.017808,0.372437,-0.034477,-0.050332,0.228694
1243,171843698,0.926947,-0.041902,-0.017687,0.372426,-0.093280,-0.069401,0.240826
1244,171860365,0.926920,-0.042083,-0.017717,0.372471,-0.075826,-0.081619,0.279515
1245,171877032,0.926898,-0.042159,-0.017796,0.372514,-0.030183,-0.091584,0.259870
1246,171893699,0.926880,-0.042256,-0.017920,0.372541,0.007353,-0.056511,0.280371
1247,171910366,0.926878,-0.042320,-0.017940,0.372539,0.037039,-0.048248,0.263797
1248,171927033,0.926889,-0.042450,-0.017882,0.372498,-0.006371,-0.045811,0.255513
1249,171943700,0.926881,-0.042581,-0.017824,0.372506,-0.032264,-0.075269,0.289790
1250,171960367,0.926839,-0.042659,-0.017828,0.372601,-0.053406,-0.078022,0.285937
1251,171977034,0.926781,-0.042773,-0.017924,0.372727,-0.030743,-0.068234,0.280919
1252,171993701,0.926734,-0.042852,-0.018061,0.372828,0.043429,-0.058687,0.238290
1253,172010368,0.926710,-0.042892,-0.018020,0.372885,0.053361,-0.034265,0.237812
1254,172027035,0.926709,-0.042944,-0.017880,0.372890,-0.011955,-0.038259,0.255366
1255,172043702,0.926714,-0.043007,-0.017720,0.372877,-0.048077,-0.078828,0.269670
1256,172060369,0.926701,-0.043033,-0.017661,0.372910,-0.084916,-0.040208,0.297120
1257,172077036,0.926669,-0.043144,-0.017754,0.372972,-0.035341,-0.078120,0.257184
1258,172093703,0.926655,-0.043181,-0.017774,0.373001,-0.018186,-0.038754,0.255780
1259,172110370,0.926664,-0.043267,-0.017860,0.372965,0.020367,-0.038078,0.267722
1260,172127037,0.926711,-0.043298,-0.017754,0.372851,0.004685,-0.043738,0.276434
1261,172143704,0.926766,-0.043353,-0.017705,0.372710,-0.029251,-0.045920,0.286290
1262,172160371,0.926806,-0.043342,-0.017631,0.372613,-0.037168,-0.035390,0.277035
1263,172177038,0.926821,-0.043344,-0.017632,0.372577,-0.068535,-0.055161,0.268412
1264,172193705,0.926839,-0.043412,-0.017748,0.372518,-0.032994,-0.037475,0.315580
1265,172210372,0.926874,-0.043405,-0.017872,0.372427,0.020563,-0.020766,0.212891
1266,172227039,0.926899,-0.043589,-0.017861,0.372343,0.040008,-0.052839,0.257126
1267,172243706,0.926910,-0.043508,-0.017743,0.372331,-0.007240,-0.016901,0.312557
1268,172260373,0.926886,-0.043603,-0.017603,0.372387,-0.034943,-0.058274,0.298540
1269,172277040,0.926832,-0.043668,-0.017617,0.372512,-0.034422,-0.047820,0.348560
1270,172293707,0.926802,-0.043705,-0.017617,0.372582,-0.052292,-0.081833,0.333984
1271,172310374,0.926819,-0.043787,-0.017721,0.372526,0.026292,-0.100454,0.282814
1272,172327041,0.926874,-0.043702,-0.017668,0.372401,0.057046,-0.050139,0.238534
1273,172343708,0.926941,-0.043615,-0.017524,0.372252,0.000497,-0.031320,0.223405
1274,172360375,0.926997,-0.043478,-0.017291,0.372140,-0.075181,-0.003009,0.251645
1275,172377042,0.927014,-0.043436,-0.017258,0.372103,-0.125079,-0.011184,0.269876
1276,172393709,0.927004,-0.043493,-0.017359,0.372116,-0.078404,0.017430,0.240932
1277,172410376,0.926980,-0.043608,-0.017468,0.372158,-0.054995,0.026750,0.266760
1278,172427043,0.926930,-0.043745,-0.017557,0.372262,-0.004841,-0.010830,0.276464
1279,172443710,0.926885,-0.043785,-0.017619,0.372366,0.010033,-0.059272,0.251672
1280,172460377,0.926864,-0.043834,-0.017660,0.372411,-0.007206,-0.038802,0.303008
1281,172477044,0.926859,-0.043829,-0.017647,0.372424,-0.011192,-0.011997,0.297567
1282,172493711,0.926851,-0.043939,-0.017653,0.372432,-0.019178,-0.035715,0.301064
1283,172510378,0.926816,-0.044011,-0.017668,0.372510,-0.021011,-0.053191,0.290433
1284,172527045,0.926773,-0.044036,-0.017748,0.372609,-0.019946,-0.017834,0.283877
1285,172543712,0.926716,-0.044127,-0.017839,0.372735,0.027943,-0.010087,0.274176
1286,172560379,0.926679,-0.044184,-0.017850,0.372821,0.068540,-0.015482,0.223873
1287,172577046,0.926661,-0.044255,-0.017708,0.372864,0.027161,0.025276,0.241059
1288,172593713,0.926646,-0.044373,-0.017528,0.372895,-0.035114,-0.000972,0.249000
1289,172610380,0.926629,-0.044732,-0.017469,0.372898,-0.013757,-0.088026,0.311345
1290,172627047,0.926623,-0.044802,-0.017363,0.372909,-0.007996,-0.124627,0.323717
1291,172643714,0.926625,-0.044853,-0.017312,0.372902,-0.012944,-0.100422,0.291636
1292,172660381,0.926651,-0.044854,-0.017234,0.372840,-0.026986,-0.051275,0.273082
1293,172677048,0.926688,-0.044870,-0.017168,0.372748,-0.003448,-0.047340,0.258411
1294,172693715,0.926722,-0.044899,-0.017018,0.372668,-0.055492,-0.024001,0.231682
1295,172710382,0.926720,-0.044982,-0.016985,0.372663,-0.070248,-0.019236,0.217967
1296,172727049,0.926687,-0.045088,-0.017012,0.372732,-0.055113,-0.036727,0.277240
1297,172743716,0.926631,-0.045190,-0.017126,0.372854,-0.019953,-0.068315,0.269808
1298,172760383,0.926599,-0.045228,-0.017225,0.372924,0.021215,-0.065446,0.300602
1299,172777050,0.926604,-0.045197,-0.017281,0.372913,0.036705,-0.015858,0.284623
1300,172793717,0.926648,-0.045235,-0.017252,0.372800,0.022021,0.001122,0.286420
1301,172810384,0.926719,-0.045313,-0.017150,0.372620,-0.007139,0.032500,0.285784
1302,172827051,0.926785,-0.045486,-0.017047,0.372438,-0.044885,0.005865,0.277295
1303,172843718,0.926830,-0.045698,-0.016996,0.372302,-0.017788,-0.042084,0.243394
1304,172860385,0.926869,-0.045837,-0.016869,0.372194,-0.027329,-0.071069,0.259265
1305,172877052,0.926901,-0.045921,-0.016809,0.372107,-0.027838,-0.082808,0.260811
1306,172893719,0.926932,-0.045957,-0.016732,0.372028,-0.055330,-0.063877,0.262698
1307,172910386,0.926929,-0.046026,-0.016754,0.372027,-0.033715,-0.015699,0.273685
1308,172927053,0.926912,-0.046123,-0.016710,0.372058,-0.001469,-0.044885,0.250476
1309,172943720,0.926867,-0.046227,-0.016695,0.372158,0.011457,-0.074219,0.250439
1310,172960387,0.926839,-0.046217,-0.016679,0.372231,0.033550,-0.091616,0.272558
1311,172977054,0.926831,-0.046158,-0.016647,0.372259,0.032531,-0.079141,0.283594
1312,172993721,0.926845,-0.046058,-0.016558,0.372241,-0.012280,-0.028842,0.285716
1313,173010388,0.926840,-0.046019,-0.016530,0.372260,-0.012726,-0.013288,0.266142
1314,173027055,0.926814,-0.046058,-0.016441,0.372323,-0.022510,0.016380,0.294117
1315,173043722,0.926769,-0.046154,-0.016396,0.372426,0.012290,-0.021711,0.240404
1316,173060389,0.926723,-0.046225,-0.016264,0.372537,0.020447,-0.049603,0.269238
1317,173077056,0.926694,-0.046281,-0.016126,0.372606,0.021014,-0.087347,0.270662
1318,173093723,0.926707,-0.046216,-0.015949,0.372590,-0.005552,-0.088957,0.267653
1319,173110390,0.926748,-0.046113,-0.015823,0.372507,-0.042112,-0.048550,0.270569
1320,173127057,0.926757,-0.046074,-0.015740,0.372493,-0.062132,-0.002567,0.253806
1321,173143724,0.926739,-0.046068,-0.015710,0.372539,-0.049257,0.001348,0.293987
1322,173160391,0.926718,-0.046084,-0.015656,0.372591,-0.064461,-0.037679,0.232855
1323,173177058,0.926694,-0.046232,-0.015770,0.372628,0.005434,-0.031747,0.269624
1324,173193725,0.926704,-0.046147,-0.015681,0.372619,0.034560,-0.084836,0.249255
1325,173210392,0.926735,-0.046111,-0.015595,0.372550,-0.062561,-0.014596,0.295043
1326,173227059,0.926768,-0.045994,-0.015568,0.372483,-0.082419,0.030826,0.283057
1327,173243726,0.926770,-0.046114,-0.015550,0.372464,-0.083758,0.040411,0.322061
1328,173260393,0.926744,-0.046359,-0.015647,0.372493,-0.009166,-0.004133,0.305078
1329,173277060,0.926737,-0.046456,-0.015647,0.372500,0.061396,-0.037380,0.244740
1330,173293727,0.926748,-0.046510,-0.015485,0.372472,0.041883,-0.039395,0.245101
1331,173310394,0.926787,-0.046513,-0.015269,0.372384,0.016659,-0.047729,0.244668
1332,173327061,0.926833,-0.046478,-0.015038,0.372282,-0.098294,-0.044133,0.256572
1333,173343728,0.926841,-0.046478,-0.014965,0.372265,-0.115833,-0.025272,0.273911
1334,173360395,0.926814,-0.046468,-0.014997,0.372333,-0.088964,-0.028667,0.286721
1335,173377062,0.926771,-0.046483,-0.015089,0.372434,-0.039045,-0.024178,0.238671
1336,173393729,0.926739,-0.046533,-0.015179,0.372504,-0.029601,-0.011871,0.271215
1337,173410396,0.926738,-0.046628,-0.015260,0.372492,0.024704,-0.037143,0.289687
1338,173427063,0.926777,-0.046672,-0.015223,0.372391,0.010474,-0.020797,0.298378
1339,173443730,0.926810,-0.046712,-0.015145,0.372306,-0.032297,-0.015790,0.260589
1340,173460397,0.926812,-0.046797,-0.015102,0.372293,-0.042525,-0.008271,0.277970
1341,173477064,0.926792,-0.046944,-0.015112,0.372324,-0.052076,-0.033805,0.260086
1342,173493731,0.926765,-0.047120,-0.015155,0.372366,-0.013011,-0.069871,0.241463
1343,173510398,0.926762,-0.047233,-0.015198,0.372357,0.034041,-0.113664,0.249047
1344,173527065,0.926781,-0.047189,-0.015190,0.372316,0.023275,-0.072225,0.233718
1345,173543732,0.926790,-0.047146,-0.015138,0.372302,0.006433,-0.021756,0.243349
1346,173560399,0.926782,-0.047295,-0.015119,0.372304,-0.038466,0.023062,0.317884
1347,173577066,0.926769,-0.047515,-0.015150,0.372306,0.053824,-0.079138,0.296864
1348,173593733,0.926760,-0.047575,-0.014933,0.372329,0.045414,-0.058668,0.321417
1349,173610400,0.926748,-0.047630,-0.014838,0.372357,0.018101,-0.042793,0.300547
1350,173627067,0.926751,-0.047648,-0.014604,0.372355,0.007326,-0.041235,0.233498
1351,173643734,0.926727,-0.047773,-0.014454,0.372406,-0.020478,-0.033809,0.254026
1352,173660401,0.926702,-0.047733,-0.014220,0.372482,-0.057003,-0.044018,0.248726
1353,173677068,0.926679,-0.047793,-0.014118,0.372536,-0.106369,-0.050612,0.277378
1354,173693735,0.926689,-0.047852,-0.014192,0.372499,-0.063346,-0.040596,0.261368
1355,173710402,0.926737,-0.047956,-0.014327,0.372362,0.002020,-0.061376,0.280449
1356,173727069,0.926802,-0.047949,-0.014302,0.372202,0.031066,-0.041211,0.285405
1357,173743736,0.926857,-0.047941,-0.014283,0.372068,-0.035518,-0.016974,0.295953
1358,173760403,0.926878,-0.047951,-0.014251,0.372015,-0.014377,-0.011607,0.283052
1359,173777070,0.926891,-0.047955,-0.014240,0.371983,-0.011970,-0.027065,0.288237
1360,173793737,0.926910,-0.047966,-0.014244,0.371933,0.016903,-0.024046,0.246104
1361,173810404,0.926934,-0.047952,-0.014126,0.371880,-0.001729,-0.004878,0.238412
1362,173827071,0.926932,-0.047990,-0.014003,0.371884,-0.024338,0.009900,0.258179
1363,173843738,0.926895,-0.048087,-0.013918,0.371966,-0.059691,-0.015385,0.284368
1364,173860405,0.926823,-0.048189,-0.013868,0.372136,-0.053136,-0.050333,0.300695
1365,173877072,0.926743,-0.048274,-0.013920,0.372322,-0.031685,-0.091075,0.297284
1366,173893739,0.926705,-0.048326,-0.014009,0.372407,0.042771,-0.091144,0.248937
1367,173910406,0.926720,-0.048247,-0.013932,0.372382,0.014897,-0.034848,0.262989
1368,173927073,0.926772,-0.048202,-0.013850,0.372262,-0.037138,-0.007422,0.267859
1369,173943740,0.926809,-0.048215,-0.013791,0.372169,-0.047728,-0.009983,0.269335
1370,173960407,0.926828,-0.048323,-0.013793,0.372108,-0.047679,0.005464,0.253119
1371,173977074,0.926846,-0.048454,-0.013839,0.372045,-0.005972,-0.051799,0.251081
1372,173993741,0.926886,-0.048572,-0.013834,0.371929,0.031804,-0.071125,0.290005
1373,174010408,0.926954,-0.048528,-0.013709,0.371772,0.025698,-0.082937,0.263609
1374,174027075,0.926999,-0.048492,-0.013544,0.371670,-0.072229,-0.025069,0.302502
1375,174043742,0.927008,-0.048506,-0.013515,0.371647,-0.089985,-0.011642,0.264243
1376,174060409,0.926975,-0.048616,-0.013615,0.371710,-0.078542,-0.054336,0.263100
1377,174077076,0.926934,-0.048752,-0.013828,0.371786,0.024789,-0.075938,0.271437
1378,174093743,0.926928,-0.048709,-0.013885,0.371804,0.056348,-0.100825,0.267956
1379,174110410,0.926951,-0.048609,-0.013867,0.371763,0.029856,-0.037170,0.280986
1380,174127077,0.926974,-0.048484,-0.013768,0.371724,-0.027383,0.021894,0.248258
1381,174143744,0.926966,-0.048498,-0.013719,0.371745,-0.070352,0.016574,0.259080
1382,174160411,0.926931,-0.048554,-0.013708,0.371824,-0.032618,-0.056407,0.267521
1383,174177078,0.926908,-0.048538,-0.013803,0.371880,-0.013487,-0.032012,0.218628
1384,174193745,0.926893,-0.048568,-0.013815,0.371914,0.056857,-0.076829,0.275155
1385,174210412,0.926903,-0.048367,-0.013668,0.371920,-0.019004,-0.009038,0.274578
1386,174227079,0.926891,-0.048342,-0.013635,0.371955,-0.057117,-0.010312,0.277977
1387,174243746,0.926853,-0.048411,-0.013586,0.372043,-0.052549,0.019605,0.295382
1388,174260413,0.926793,-0.048529,-0.013577,0.372176,-0.055529,-0.075034,0.295664
1389,174277080,0.926742,-0.048614,-0.013628,0.372289,-0.021926,-0.106018,0.301475
1390,174293747,0.926754,-0.048541,-0.013669,0.372269,0.001000,-0.121625,0.252375
1391,174310414,0.926811,-0.048406,-0.013683,0.372143,-0.028117,-0.028808,0.246340
1392,174327081,0.926868,-0.048327,-0.013716,0.372011,-0.071295,0.020522,0.223234
1393,174343748,0.926888,-0.048373,-0.013787,0.371952,-0.069329,0.016563,0.242866
1394,174360415,0.926873,-0.048408,-0.013916,0.371981,-0.017188,-0.049842,0.228697
1395,174377082,0.926831,-0.048436,-0.014077,0.372076,0.013697,-0.069875,0.287350
1396,174393749,0.926810,-0.048331,-0.014197,0.372137,0.053067,-0.056090,0.282694
1397,174410416,0.926804,-0.048183,-0.014205,0.372171,0.006377,-0.028194,0.299923
1398,174427083,0.926797,-0.048055,-0.014225,0.372204,-0.005329,-0.009108,0.254782
1399,174443750,0.926774,-0.047922,-0.014226,0.372277,-0.038393,0.006466,0.308233
1400,174460417,0.926754,-0.047887,-0.014284,0.372329,-0.007210,0.031259,0.285896
1401,174477084,0.926735,-0.047884,-0.014260,0.372378,-0.011513,0.052643,0.266665
1402,174493751,0.926712,-0.048029,-0.014269,0.372417,0.027961,0.010295,0.264650
1403,174510418,0.926706,-0.048141,-0.014220,0.372420,0.035376,-0.020293,0.293411
1404,174527085,0.926713,-0.048173,-0.014129,0.372403,0.055459,-0.041494,0.233678
1405,174543752,0.926728,-0.048151,-0.013961,0.372374,0.021496,0.036248,0.221810
1406,174560419,0.926735,-0.048199,-0.013731,0.372359,-0.049927,0.043402,0.211499
1407,174577086,0.926710,-0.048558,-0.013679,0.372375,-0.028148,-0.046163,0.287890
1408,174593753,0.926695,-0.048699,-0.013547,0.372399,0.020578,-0.111890,0.306700
1409,174610420,0.926671,-0.048764,-0.013439,0.372455,0.000735,-0.118128,0.312965
1410,174627087,0.926662,-0.048708,-0.013359,0.372487,0.003174,-0.075851,0.289617
1411,174643754,0.926670,-0.048696,-0.013330,0.372471,-0.003455,-0.067546,0.264346
1412,174660421,0.926678,-0.048650,-0.013237,0.372459,0.010664,-0.047275,0.218765
1413,174677088,0.926666,-0.048558,-0.013104,0.372506,-0.066354,-0.035165,0.285098
1414,174693755,0.926654,-0.048492,-0.013118,0.372543,-0.097345,-0.041473,0.251429
1415,174710422,0.926646,-0.048507,-0.013205,0.372558,-0.072059,-0.026192,0.287161
1416,174727089,0.926661,-0.048504,-0.013357,0.372516,0.004611,-0.038036,0.282538
1417,174743756,0.926694,-0.048474,-0.013420,0.372436,-0.027802,-0.006266,0.293016
1418,174760423,0.926728,-0.048533,-0.013562,0.372339,0.021510,-0.000445,0.254258
1419,174777090,0.926759,-0.048613,-0.013608,0.372248,0.054382,-0.044719,0.254905
1420,174793757,0.926776,-0.048599,-0.013504,0.372212,0.043626,-0.021832,0.269632
1421,174810424,0.926766,-0.048541,-0.013385,0.372248,-0.008226,-0.023148,0.300803
1422,174827091,0.926726,-0.048556,-0.013260,0.372352,-0.041754,-0.020585,0.287213
1423,174843758,0.926678,-0.048608,-0.013252,0.372465,-0.009747,-0.034168,0.258235
1424,174860425,0.926648,-0.048628,-0.013146,0.372541,-0.022806,-0.027637,0.259336
1425,174877092,0.926644,-0.048662,-0.013085,0.372547,-0.050061,-0.021315,0.252376
1426,174893759,0.926664,-0.048734,-0.013047,0.372490,-0.058306,-0.009331,0.262948
1427,174910426,0.926696,-0.048819,-0.013093,0.372397,-0.027877,0.006355,0.281054
1428,174927093,0.926735,-0.048893,-0.013102,0.372291,-0.035691,-0.001433,0.300817
1429,174943760,0.926777,-0.049005,-0.013107,0.372170,-0.033957,0.004303,0.271962
1430,174960427,0.926824,-0.049174,-0.013139,0.372031,-0.052247,-0.023829,0.291374
1431,174977094,0.926866,-0.049346,-0.013212,0.371900,-0.044346,-0.047735,0.290126
1432,174993761,0.926895,-0.049509,-0.013377,0.371799,-0.031560,-0.048580,0.276218
1433,175010428,0.926924,-0.049634,-0.013564,0.371704,0.024442,-0.064986,0.273069
1434,175027095,0.926962,-0.049691,-0.013665,0.371598,0.035502,-0.057207,0.279609
1435,175043762,0.926994,-0.049752,-0.013722,0.371508,0.053582,-0.052455,0.243686
1436,175060429,0.927038,-0.049792,-0.013720,0.371394,0.065540,-0.063993,0.230392
1437,175077096,0.927075,-0.049797,-0.013600,0.371305,0.058743,-0.089839,0.271059
1438,175093763,0.927099,-0.049684,-0.013384,0.371268,-0.012768,-0.059823,0.305086
1439,175110430,0.927077,-0.049581,-0.013250,0.371342,-0.083595,-0.055858,0.295734
1440,175127097,0.927033,-0.049530,-0.013295,0.371458,-0.084114,-0.047241,0.276485
1441,175143764,0.926998,-0.049523,-0.013408,0.371540,-0.030448,-0.024849,0.259531
1442,175160431,0.926976,-0.049609,-0.013492,0.371581,0.022669,-0.046220,0.253370
1443,175177098,0.926989,-0.049557,-0.013429,0.371557,0.007652,-0.029598,0.193695
1444,175193765,0.927013,-0.049589,-0.013231,0.371501,-0.038662,-0.038996,0.243065
1445,175210432,0.927043,-0.049490,-0.013047,0.371446,-0.144856,-0.014315,0.290007
1446,175227099,0.927044,-0.049611,-0.013077,0.371426,-0.157833,-0.064857,0.272513
1447,175243766,0.927013,-0.049765,-0.013368,0.371473,-0.085399,-0.047912,0.324863
1448,175260433,0.926992,-0.049848,-0.013671,0.371504,0.018289,-0.102065,0.289947
1449,175277100,0.927010,-0.049857,-0.013981,0.371444,0.110921,-0.080819,0.257613
1450,175293767,0.927079,-0.049596,-0.013987,0.371307,0.099492,-0.038082,0.227209
1451,175310434,0.927137,-0.049257,-0.013778,0.371215,-0.033173,0.066631,0.277884
1452,175327101,0.927135,-0.049059,-0.013657,0.371251,-0.135983,0.095287,0.265392
1453,175343768,0.927065,-0.049133,-0.013831,0.371409,-0.124621,0.087237,0.284207
1454,175360435,0.926963,-0.049264,-0.014055,0.371639,-0.032986,0.042011,0.249591
1455,175377102,0.926885,-0.049403,-0.014256,0.371808,0.042233,0.009029,0.262915
1456,175393769,0.926848,-0.049511,-0.014394,0.371879,0.084269,-0.006955,0.243322
1457,175410436,0.926862,-0.049616,-0.014290,0.371835,0.049195,0.002606,0.290292
1458,175427103,0.926887,-0.049792,-0.014207,0.371752,0.009386,-0.014027,0.278620
1459,175443770,0.926924,-0.049938,-0.014099,0.371646,0.001657,-0.057349,0.283258
1460,175460437,0.926960,-0.050078,-0.014096,0.371537,-0.007958,-0.065839,0.220895
1461,175477104,0.926986,-0.050214,-0.014086,0.371454,0.010876,-0.087473,0.248097
1462,175493771,0.926997,-0.050276,-0.014107,0.371416,0.042609,-0.100597,0.244452
1463,175510438,0.927008,-0.050219,-0.014049,0.371399,0.037764,-0.107942,0.273544
1464,175527105,0.927024,-0.050099,-0.014009,0.371376,0.024589,-0.066688,0.215302
1465,175543772,0.927033,-0.049988,-0.013901,0.371373,-0.020008,0.000156,0.247160
1466,175560439,0.927027,-0.049888,-0.013796,0.371406,-0.092849,0.019251,0.279501
1467,175577106,0.927008,-0.050105,-0.013954,0.371418,-0.077320,-0.040869,0.290814
1468,175593773,0.927004,-0.050266,-0.014114,0.371400,0.050786,-0.109301,0.275846
1469,175610440,0.927015,-0.050185,-0.014089,0.371383,0.002114,-0.092953,0.287125
1470,175627107,0.927024,-0.050103,-0.014132,0.371372,-0.008584,-0.067033,0.271898
1471,175643774,0.927027,-0.050011,-0.014156,0.371377,-0.033377,-0.014504,0.251035
1472,175660441,0.927022,-0.049947,-0.014239,0.371393,-0.011397,-0.014838,0.233971
1473,175677108,0.927024,-0.049879,-0.014246,0.371397,-0.034918,-0.014604,0.212899
1474,175693775,0.927023,-0.049871,-0.014336,0.371397,-0.026757,0.009200,0.209343
1475,175710442,0.927038,-0.049814,-0.014356,0.371366,-0.026590,0.015813,0.244943
1476,175727109,0.927065,-0.049863,-0.014468,0.371288,0.002515,-0.009272,0.281561
1477,175743776,0.927110,-0.049818,-0.014419,0.371183,-0.007451,0.025300,0.288593
1478,175760443,0.927142,-0.049896,-0.014447,0.371091,0.006220,0.003545,0.321151
1479,175777110,0.927156,-0.049931,-0.014334,0.371058,0.008287,-0.026543,0.267472
