sep=,
DeviceTag:,Xsens
FirmwareVersion:,3.0.0
AppVersion:,2023.6.0
SyncStatus:,Un-synced
OutputRate:,60Hz
FilterProfile:,General
Measurement Mode:,Sensor fusion Mode - Complete(Quaternion)
StartTime: ,2024-04-03_10:38:19_179 CEST
© Movella Technologies B. V. 2005-2024

PacketCounter,SampleTimeFine,Quat_W,Quat_X,Quat_Y,Quat_Z,FreeAcc_X,FreeAcc_Y,FreeAcc_Z
1,215253959,0.937540,0.192278,0.020475,0.289188,0.031031,-0.109879,0.170481
2,215270626,0.937608,0.192093,0.020279,0.289102,-0.013931,-0.059138,0.309663
3,215287293,0.937647,0.191882,0.020307,0.289114,-0.002859,-0.002729,0.299732
4,215303960,0.937533,0.192065,0.020278,0.289365,-0.049500,-0.027140,0.305202
5,215320627,0.937470,0.192209,0.020329,0.289468,0.015631,0.034097,0.250720
6,215337294,0.937222,0.192738,0.020377,0.289918,-0.040887,0.049277,0.232098
7,215353961,0.937034,0.193128,0.020294,0.290270,0.022576,0.066757,0.279345
8,215370628,0.936874,0.193528,0.020119,0.290533,0.030539,-0.033585,0.218857
9,215387295,0.936732,0.193934,0.019929,0.290732,0.015576,-0.082874,0.258171
10,215403962,0.936626,0.194197,0.019708,0.290914,0.042901,-0.089524,0.249242
11,215420629,0.936470,0.194513,0.019615,0.291211,0.000791,-0.142518,0.217781
12,215437296,0.936371,0.194949,0.019556,0.291244,-0.094555,-0.081638,0.258601
13,215453963,0.936246,0.195231,0.019494,0.291461,-0.068510,-0.074256,0.212616
14,215470630,0.936115,0.195659,0.019498,0.291592,-0.109291,-0.119675,0.224146
15,215487297,0.936018,0.196063,0.019458,0.291634,-0.057491,-0.104158,0.293034
16,215503964,0.935918,0.196327,0.019401,0.291783,0.028566,-0.131340,0.236659
17,215520631,0.935765,0.196817,0.019516,0.291935,-0.044779,-0.179841,0.300251
18,215537298,0.935685,0.197188,0.019583,0.291936,-0.097365,-0.062205,0.344096
19,215553965,0.935607,0.197250,0.019519,0.292149,-0.095099,-0.095406,0.295012
20,215570632,0.935527,0.197335,0.019385,0.292358,-0.069635,-0.134359,0.240361
21,215587299,0.935453,0.197469,0.019195,0.292515,-0.057436,-0.130961,0.265961
22,215603966,0.935373,0.197528,0.018937,0.292747,-0.051127,-0.129204,0.253757
23,215620633,0.935325,0.197665,0.018699,0.292825,0.039965,-0.182924,0.218492
24,215637300,0.935239,0.198074,0.018715,0.292822,-0.082686,-0.130621,0.213238
25,215653967,0.935196,0.198253,0.018453,0.292853,-0.130049,-0.168993,0.254316
26,215670634,0.935150,0.198313,0.018191,0.292976,0.086081,-0.185466,0.274788
27,215687301,0.935080,0.198542,0.018057,0.293054,0.007516,-0.250452,0.272682
28,215703968,0.934977,0.198880,0.017987,0.293157,0.038069,-0.152223,0.247768
29,215720635,0.934855,0.199287,0.018009,0.293269,-0.058551,-0.065095,0.294687
30,215737302,0.934742,0.199542,0.017992,0.293458,-0.145471,-0.059522,0.271645
31,215753969,0.934663,0.199675,0.017772,0.293631,-0.110616,-0.128226,0.245732
32,215770636,0.934594,0.199646,0.017517,0.293886,-0.061830,-0.172278,0.245011
33,215787303,0.934536,0.199645,0.017295,0.294085,-0.083122,-0.278964,0.269020
34,215803970,0.934450,0.199781,0.017063,0.294278,-0.059740,-0.307739,0.225104
35,215820637,0.934372,0.200025,0.016972,0.294365,-0.088072,-0.212634,0.276462
36,215837304,0.934335,0.200117,0.016776,0.294432,-0.044922,-0.174352,0.213030
37,215853971,0.934258,0.200354,0.016711,0.294519,-0.066734,-0.212515,0.196186
38,215870638,0.934192,0.200568,0.016551,0.294591,-0.057836,-0.199885,0.260855
39,215887305,0.934106,0.200827,0.016436,0.294692,-0.096781,-0.258021,0.265035
40,215903972,0.934030,0.201109,0.016311,0.294750,-0.046141,-0.307437,0.274984
41,215920639,0.933964,0.201495,0.016270,0.294697,-0.088117,-0.215575,0.257052
42,215937306,0.933891,0.201725,0.016155,0.294779,-0.112193,-0.212371,0.293282
43,215953973,0.933822,0.201955,0.015985,0.294848,-0.004198,-0.287695,0.208094
44,215970640,0.933727,0.202290,0.015738,0.294933,-0.050727,-0.320928,0.218941
45,215987307,0.933596,0.202859,0.015630,0.294962,-0.139859,-0.356077,0.220265
46,216003974,0.933508,0.203345,0.015527,0.294913,-0.142313,-0.262355,0.331707
47,216020641,0.933471,0.203606,0.015346,0.294857,0.006809,-0.222995,0.253099
48,216037308,0.933390,0.203957,0.015304,0.294873,0.010304,-0.284629,0.203577
49,216053975,0.933307,0.204362,0.015220,0.294861,-0.017432,-0.315787,0.223095
50,216070642,0.933193,0.204831,0.015123,0.294901,-0.050951,-0.330701,0.273145
51,216087309,0.933095,0.205226,0.015024,0.294941,-0.067731,-0.340100,0.282001
52,216103976,0.932989,0.205581,0.014922,0.295036,-0.071193,-0.311520,0.268901
53,216120643,0.932903,0.205926,0.014889,0.295067,-0.087553,-0.329199,0.227425
54,216137310,0.932835,0.206263,0.014813,0.295050,-0.138581,-0.372001,0.254052
55,216153977,0.932770,0.206611,0.014744,0.295017,-0.131493,-0.342637,0.240163
56,216170644,0.932712,0.206895,0.014664,0.295004,-0.140132,-0.350852,0.279458
57,216187311,0.932658,0.207110,0.014541,0.295030,-0.022687,-0.326555,0.271447
58,216203978,0.932565,0.207420,0.014568,0.295105,-0.129443,-0.370404,0.249811
59,216220645,0.932541,0.207597,0.014402,0.295066,-0.110048,-0.382955,0.217411
60,216237312,0.932457,0.208000,0.014362,0.295048,-0.123994,-0.415642,0.216188
61,216253979,0.932385,0.208441,0.014324,0.294967,-0.117546,-0.354654,0.254811
62,216270646,0.932325,0.208761,0.014245,0.294935,-0.095691,-0.329540,0.287920
63,216287313,0.932276,0.209023,0.014126,0.294908,-0.055420,-0.391837,0.254691
64,216303980,0.932199,0.209395,0.014025,0.294892,-0.095838,-0.419012,0.265974
65,216320647,0.932120,0.209705,0.013871,0.294929,-0.084175,-0.381382,0.249763
66,216337314,0.932036,0.210135,0.013805,0.294892,-0.101893,-0.395536,0.256827
67,216353981,0.931972,0.210411,0.013671,0.294905,-0.182618,-0.428812,0.281756
68,216370648,0.931968,0.210471,0.013488,0.294884,-0.015502,-0.410216,0.290097
69,216387315,0.931909,0.210651,0.013456,0.294940,-0.103806,-0.460694,0.268720
70,216403982,0.931871,0.210810,0.013300,0.294957,-0.093172,-0.437081,0.225773
71,216420649,0.931794,0.211173,0.013219,0.294943,-0.163130,-0.380915,0.251438
72,216437316,0.931752,0.211378,0.013113,0.294933,-0.165646,-0.380904,0.232233
73,216453983,0.931702,0.211630,0.012966,0.294918,-0.133429,-0.450720,0.211828
74,216470650,0.931643,0.211963,0.012943,0.294866,-0.088308,-0.422616,0.236759
75,216487317,0.931621,0.212152,0.012811,0.294805,-0.064037,-0.453609,0.287291
76,216503984,0.931555,0.212380,0.012727,0.294854,-0.131082,-0.529194,0.201709
77,216520651,0.931477,0.212711,0.012583,0.294869,-0.118702,-0.528650,0.213757
78,216537318,0.931416,0.213019,0.012436,0.294843,-0.130202,-0.516894,0.249245
79,216553985,0.931339,0.213347,0.012364,0.294852,-0.091347,-0.506521,0.225999
80,216570652,0.931261,0.213721,0.012320,0.294829,-0.118914,-0.477972,0.264932
81,216587319,0.931219,0.213954,0.012209,0.294797,-0.086583,-0.459915,0.250642
82,216603986,0.931170,0.214233,0.012139,0.294753,-0.106459,-0.495834,0.274117
83,216620653,0.931092,0.214525,0.012061,0.294790,-0.136958,-0.481540,0.256748
84,216637320,0.931001,0.214757,0.011953,0.294914,-0.187843,-0.493454,0.291802
85,216653987,0.930938,0.214877,0.011737,0.295032,-0.149978,-0.512350,0.257821
86,216670654,0.930876,0.215047,0.011606,0.295109,-0.096670,-0.467202,0.262336
87,216687321,0.930830,0.215145,0.011466,0.295190,-0.185693,-0.501928,0.238073
88,216703988,0.930793,0.215157,0.011208,0.295309,-0.186186,-0.523811,0.267697
89,216720655,0.930733,0.215239,0.010964,0.295446,-0.095004,-0.535433,0.227010
90,216737322,0.930668,0.215404,0.010754,0.295537,-0.144865,-0.554633,0.242907
91,216753989,0.930584,0.215616,0.010553,0.295654,-0.091892,-0.546441,0.223328
92,216770656,0.930521,0.215788,0.010383,0.295735,-0.103136,-0.553671,0.264999
93,216787323,0.930472,0.215942,0.010235,0.295782,-0.112285,-0.582518,0.221962
94,216803990,0.930426,0.216194,0.010119,0.295747,-0.135830,-0.600709,0.207499
95,216820657,0.930363,0.216455,0.009982,0.295757,-0.172250,-0.584676,0.230396
96,216837324,0.930310,0.216730,0.009849,0.295727,-0.137628,-0.536663,0.250456
97,216853991,0.930260,0.216956,0.009790,0.295723,-0.133366,-0.517011,0.258450
98,216870658,0.930221,0.217107,0.009710,0.295736,-0.096557,-0.533818,0.239143
99,216887325,0.930164,0.217287,0.009732,0.295781,-0.155459,-0.559018,0.230897
100,216903992,0.930116,0.217391,0.009643,0.295858,-0.146971,-0.581656,0.228679
101,216920659,0.930075,0.217511,0.009541,0.295904,-0.137580,-0.627848,0.219836
102,216937326,0.930015,0.217716,0.009445,0.295945,-0.108776,-0.646869,0.220033
103,216953993,0.929950,0.217991,0.009447,0.295945,-0.153432,-0.582710,0.211184
104,216970660,0.929900,0.218240,0.009364,0.295922,-0.137518,-0.591696,0.240632
105,216987327,0.929815,0.218521,0.009252,0.295985,-0.114805,-0.643330,0.232849
106,217003994,0.929701,0.218932,0.009197,0.296041,-0.160450,-0.617109,0.248293
107,217020661,0.929596,0.219280,0.009084,0.296116,-0.173213,-0.558414,0.241334
108,217037328,0.929504,0.219536,0.008928,0.296221,-0.214319,-0.610603,0.244955
109,217053995,0.929429,0.219795,0.008729,0.296270,-0.135737,-0.612037,0.194667
110,217070662,0.929369,0.220075,0.008556,0.296254,-0.129570,-0.610868,0.239764
111,217087329,0.929293,0.220432,0.008409,0.296234,-0.146124,-0.626826,0.242205
112,217103996,0.929231,0.220711,0.008192,0.296226,-0.197011,-0.662173,0.243346
113,217120663,0.929172,0.220955,0.007937,0.296237,-0.114806,-0.673530,0.299391
114,217137330,0.929105,0.221167,0.007789,0.296292,-0.078931,-0.661006,0.275931
115,217153997,0.929045,0.221442,0.007807,0.296272,-0.118387,-0.654733,0.192273
116,217170664,0.928966,0.221879,0.007895,0.296191,-0.206103,-0.552775,0.256897
117,217187331,0.928926,0.222136,0.007971,0.296122,-0.250864,-0.543017,0.243475
118,217203998,0.928876,0.222280,0.007812,0.296177,-0.210260,-0.624063,0.224410
119,217220665,0.928816,0.222515,0.007729,0.296190,-0.109644,-0.603583,0.193241
120,217237332,0.928744,0.222742,0.007699,0.296246,-0.148296,-0.592611,0.239902
121,217253999,0.928700,0.222823,0.007625,0.296323,-0.086109,-0.688354,0.246392
122,217270666,0.928642,0.223083,0.007704,0.296307,-0.085591,-0.734297,0.210158
123,217287333,0.928577,0.223369,0.007732,0.296295,-0.166544,-0.707562,0.253782
124,217304000,0.928511,0.223675,0.007673,0.296273,-0.136751,-0.695822,0.157876
125,217320667,0.928423,0.224116,0.007713,0.296215,-0.159795,-0.648204,0.217197
126,217337334,0.928346,0.224392,0.007704,0.296246,-0.166435,-0.615231,0.279539
127,217354001,0.928281,0.224558,0.007691,0.296328,-0.145967,-0.651853,0.252611
128,217370668,0.928186,0.224774,0.007737,0.296460,-0.190617,-0.692570,0.236580
129,217387335,0.928125,0.224910,0.007730,0.296547,-0.134574,-0.655477,0.251195
130,217404002,0.928044,0.225049,0.007700,0.296694,-0.191572,-0.699793,0.248041
131,217420669,0.927989,0.225123,0.007573,0.296815,-0.118724,-0.739994,0.203548
132,217437336,0.927925,0.225214,0.007527,0.296948,-0.126333,-0.694314,0.196001
133,217454003,0.927852,0.225428,0.007567,0.297012,-0.224438,-0.626102,0.207794
134,217470670,0.927818,0.225510,0.007468,0.297057,-0.223646,-0.595182,0.242415
135,217487337,0.927781,0.225582,0.007362,0.297121,-0.191226,-0.638963,0.211712
136,217504004,0.927734,0.225665,0.007255,0.297207,-0.210298,-0.653456,0.265059
137,217520671,0.927676,0.225740,0.007089,0.297334,-0.171025,-0.647050,0.244491
138,217537338,0.927625,0.225803,0.006904,0.297450,-0.183305,-0.691824,0.245204
139,217554005,0.927581,0.225837,0.006747,0.297568,-0.155122,-0.716205,0.253448
140,217570672,0.927540,0.225890,0.006662,0.297654,-0.193835,-0.745981,0.235436
141,217587339,0.927495,0.226007,0.006599,0.297708,-0.202161,-0.723607,0.197202
142,217604006,0.927445,0.226163,0.006530,0.297749,-0.185347,-0.670941,0.238591
143,217620673,0.927423,0.226174,0.006431,0.297810,-0.142915,-0.651405,0.242164
144,217637340,0.927418,0.226142,0.006412,0.297851,-0.105176,-0.686697,0.266309
145,217654007,0.927422,0.226031,0.006396,0.297922,-0.184620,-0.715216,0.237500
146,217670674,0.927440,0.225942,0.006327,0.297936,-0.142618,-0.727103,0.233870
147,217687341,0.927432,0.225944,0.006322,0.297957,-0.135430,-0.716785,0.211882
148,217704008,0.927423,0.225962,0.006319,0.297972,-0.147819,-0.693515,0.235403
149,217720675,0.927405,0.225955,0.006258,0.298037,-0.145107,-0.671282,0.192535
150,217737342,0.927359,0.225958,0.006254,0.298177,-0.195338,-0.709400,0.198174
151,217754009,0.927296,0.226014,0.006210,0.298330,-0.171733,-0.722979,0.221241
152,217770676,0.927255,0.226071,0.006183,0.298415,-0.141721,-0.706709,0.255720
153,217787343,0.927203,0.226167,0.006179,0.298505,-0.118649,-0.711132,0.230843
154,217804010,0.927163,0.226275,0.006192,0.298549,-0.125047,-0.709688,0.235229
155,217820677,0.927105,0.226404,0.006210,0.298630,-0.134324,-0.705716,0.164871
156,217837344,0.927028,0.226649,0.006275,0.298679,-0.163856,-0.688226,0.194105
157,217854011,0.926958,0.226908,0.006417,0.298696,-0.256353,-0.688893,0.244418
158,217870678,0.926943,0.226994,0.006361,0.298679,-0.216336,-0.724707,0.256001
159,217887345,0.926920,0.227040,0.006400,0.298715,-0.193510,-0.702423,0.284032
160,217904012,0.926923,0.226993,0.006364,0.298742,-0.127604,-0.723720,0.218076
161,217920679,0.926894,0.227148,0.006515,0.298712,-0.134609,-0.667078,0.205658
162,217937346,0.926880,0.227217,0.006642,0.298701,-0.180260,-0.599594,0.273491
163,217954013,0.926881,0.227168,0.006764,0.298731,-0.198134,-0.685287,0.219803
164,217970680,0.926864,0.227227,0.006867,0.298737,-0.158585,-0.697041,0.231623
165,217987347,0.926856,0.227222,0.006936,0.298765,-0.191904,-0.638982,0.266595
166,218004014,0.926870,0.227124,0.006847,0.298798,-0.159851,-0.733449,0.193985
167,218020681,0.926841,0.227212,0.006842,0.298821,-0.158850,-0.685438,0.196616
168,218037348,0.926814,0.227245,0.006858,0.298877,-0.186457,-0.658666,0.204808
169,218054015,0.926784,0.227148,0.006798,0.299048,-0.164192,-0.694210,0.216466
170,218070682,0.926763,0.227134,0.006797,0.299123,-0.167990,-0.712906,0.290927
171,218087349,0.926759,0.227031,0.006761,0.299213,-0.165288,-0.698566,0.278656
172,218104016,0.926787,0.226895,0.006722,0.299232,-0.146774,-0.673361,0.237734
173,218120683,0.926797,0.226766,0.006689,0.299299,-0.164301,-0.689270,0.208637
174,218137350,0.926790,0.226680,0.006647,0.299387,-0.168950,-0.697053,0.207757
175,218154017,0.926771,0.226670,0.006670,0.299454,-0.176266,-0.685134,0.225215
176,218170684,0.926778,0.226484,0.006603,0.299575,-0.185538,-0.749391,0.249017
177,218187351,0.926798,0.226351,0.006577,0.299611,-0.083016,-0.715999,0.210382
178,218204018,0.926808,0.226301,0.006601,0.299617,-0.142584,-0.712841,0.238732
179,218220685,0.926803,0.226269,0.006662,0.299656,-0.165110,-0.687689,0.242552
180,218237352,0.926812,0.226262,0.006719,0.299634,-0.127681,-0.645087,0.210702
181,218254019,0.926807,0.226246,0.006805,0.299660,-0.175357,-0.635600,0.250709
182,218270686,0.926812,0.226204,0.006849,0.299674,-0.170305,-0.630854,0.207867
183,218287353,0.926822,0.226135,0.006867,0.299694,-0.190948,-0.619491,0.239627
184,218304020,0.926828,0.226006,0.006813,0.299774,-0.167784,-0.631631,0.225876
185,218320687,0.926839,0.225848,0.006756,0.299860,-0.151168,-0.716568,0.198339
186,218337354,0.926839,0.225792,0.006775,0.299902,-0.154471,-0.752606,0.212863
187,218354021,0.926842,0.225794,0.006845,0.299891,-0.167055,-0.727641,0.233942
188,218370688,0.926836,0.225800,0.006935,0.299903,-0.148274,-0.714544,0.257135
189,218387355,0.926846,0.225759,0.006992,0.299900,-0.150139,-0.658766,0.233029
190,218404022,0.926856,0.225692,0.007143,0.299917,-0.133885,-0.652128,0.234662
191,218420689,0.926885,0.225550,0.007204,0.299934,-0.193152,-0.683743,0.223072
192,218437356,0.926901,0.225459,0.007252,0.299950,-0.194219,-0.660745,0.240747
193,218454023,0.926917,0.225340,0.007296,0.299990,-0.159951,-0.678183,0.211859
194,218470690,0.926940,0.225284,0.007402,0.299958,-0.160491,-0.656374,0.247868
195,218487357,0.926950,0.225177,0.007477,0.300007,-0.134206,-0.627820,0.247713
196,218504024,0.926974,0.225018,0.007554,0.300048,-0.157010,-0.694479,0.246407
197,218520691,0.926967,0.224930,0.007602,0.300136,-0.161415,-0.682247,0.239670
198,218537358,0.926979,0.224809,0.007611,0.300188,-0.140459,-0.657532,0.223350
199,218554025,0.926979,0.224779,0.007623,0.300211,-0.168192,-0.674625,0.206381
200,218570692,0.926977,0.224801,0.007692,0.300197,-0.128266,-0.599252,0.221292
201,218587359,0.927003,0.224724,0.007707,0.300175,-0.123372,-0.602781,0.265525
202,218604026,0.927019,0.224604,0.007695,0.300215,-0.136285,-0.687034,0.220093
203,218620693,0.926994,0.224640,0.007739,0.300266,-0.131869,-0.695407,0.226460
204,218637360,0.926964,0.224656,0.007765,0.300346,-0.263507,-0.676477,0.242468
205,218654027,0.926985,0.224512,0.007702,0.300389,-0.064023,-0.689546,0.266655
206,218670694,0.926995,0.224434,0.007893,0.300414,-0.092193,-0.648417,0.227327
207,218687361,0.927020,0.224362,0.008046,0.300383,-0.093538,-0.647881,0.202239
208,218704028,0.927034,0.224449,0.008208,0.300271,-0.160989,-0.596148,0.223733
209,218720695,0.927038,0.224470,0.008375,0.300240,-0.206417,-0.569538,0.251313
210,218737362,0.927060,0.224390,0.008478,0.300230,-0.249401,-0.609751,0.254414
211,218754029,0.927096,0.224258,0.008561,0.300213,-0.144347,-0.614426,0.252254
212,218770696,0.927149,0.224044,0.008602,0.300208,-0.120928,-0.605472,0.234550
213,218787363,0.927182,0.223884,0.008675,0.300223,-0.093434,-0.621895,0.256145
214,218804030,0.927215,0.223646,0.008693,0.300299,-0.138815,-0.678379,0.196886
215,218820697,0.927206,0.223633,0.008801,0.300333,-0.152555,-0.671287,0.199887
216,218837364,0.927210,0.223557,0.008848,0.300377,-0.189169,-0.645463,0.252851
217,218854031,0.927237,0.223482,0.008881,0.300347,-0.148710,-0.643172,0.242717
218,218870698,0.927252,0.223396,0.008931,0.300365,-0.146198,-0.595992,0.256774
219,218887365,0.927285,0.223231,0.008967,0.300382,-0.116558,-0.601456,0.263003
220,218904032,0.927318,0.223089,0.009035,0.300386,-0.104565,-0.619001,0.240705
221,218920699,0.927333,0.223008,0.009156,0.300397,-0.121572,-0.586894,0.280123
222,218937366,0.927342,0.222871,0.009281,0.300464,-0.160559,-0.584661,0.241655
223,218954033,0.927382,0.222620,0.009266,0.300528,-0.127812,-0.666570,0.229907
224,218970700,0.927403,0.222489,0.009330,0.300559,-0.091920,-0.597997,0.250147
225,218987367,0.927436,0.222289,0.009300,0.300604,-0.128627,-0.629544,0.264359
226,219004034,0.927464,0.222175,0.009319,0.300602,-0.203167,-0.603391,0.233220
227,219020701,0.927490,0.222069,0.009367,0.300599,-0.107885,-0.563537,0.225096
228,219037368,0.927500,0.221973,0.009482,0.300636,-0.161898,-0.567028,0.261690
229,219054035,0.927516,0.221842,0.009538,0.300680,-0.095809,-0.584411,0.227788
230,219070702,0.927510,0.221761,0.009604,0.300759,-0.126299,-0.568748,0.218877
231,219087369,0.927519,0.221617,0.009630,0.300835,-0.130577,-0.582965,0.227457
232,219104036,0.927537,0.221477,0.009642,0.300882,-0.141751,-0.638133,0.220716
233,219120703,0.927549,0.221394,0.009685,0.300905,-0.152815,-0.601464,0.257079
234,219137370,0.927575,0.221294,0.009754,0.300895,-0.154870,-0.588425,0.247610
235,219154037,0.927597,0.221232,0.009822,0.300871,-0.129418,-0.561799,0.280229
236,219170704,0.927628,0.221115,0.009879,0.300861,-0.151172,-0.524583,0.248826
237,219187371,0.927678,0.220929,0.009900,0.300843,-0.114713,-0.537856,0.234479
238,219204038,0.927705,0.220774,0.009954,0.300872,-0.145675,-0.557060,0.249342
239,219220705,0.927748,0.220549,0.009957,0.300903,-0.145177,-0.585015,0.226422
240,219237372,0.927791,0.220361,0.010025,0.300906,-0.096808,-0.617341,0.224989
241,219254039,0.927819,0.220261,0.010141,0.300890,-0.126733,-0.602997,0.256927
242,219270706,0.927828,0.220171,0.010211,0.300924,-0.084171,-0.593710,0.228520
243,219287373,0.927837,0.220109,0.010296,0.300940,-0.129873,-0.572243,0.261290
244,219304040,0.927868,0.219948,0.010311,0.300963,-0.128811,-0.567125,0.202518
245,219320707,0.927880,0.219906,0.010384,0.300952,-0.125664,-0.546167,0.238375
246,219337374,0.927910,0.219814,0.010454,0.300924,-0.127032,-0.490296,0.256030
247,219354041,0.927945,0.219696,0.010532,0.300900,-0.091241,-0.514876,0.219136
248,219370708,0.927959,0.219613,0.010620,0.300914,-0.102323,-0.549191,0.268782
249,219387375,0.927973,0.219499,0.010705,0.300951,-0.147384,-0.542649,0.247429
250,219404042,0.927987,0.219424,0.010733,0.300961,-0.157784,-0.585171,0.229904
251,219420709,0.928007,0.219377,0.010762,0.300935,-0.140293,-0.531501,0.261619
252,219437376,0.928024,0.219345,0.010837,0.300901,-0.109482,-0.526376,0.240691
253,219454043,0.928038,0.219318,0.010905,0.300876,-0.170120,-0.550456,0.217266
254,219470710,0.928051,0.219216,0.010899,0.300911,-0.080146,-0.564122,0.285493
255,219487377,0.928063,0.219131,0.010980,0.300931,-0.118772,-0.562250,0.250069
256,219504044,0.928093,0.219068,0.011037,0.300883,-0.069202,-0.542323,0.212038
257,219520711,0.928107,0.219148,0.011226,0.300774,-0.123705,-0.418434,0.256908
258,219537378,0.928170,0.219022,0.011349,0.300669,-0.156282,-0.425508,0.239548
259,219554045,0.928203,0.218919,0.011437,0.300639,-0.144029,-0.503388,0.227492
260,219570712,0.928234,0.218829,0.011546,0.300604,-0.132572,-0.491791,0.294705
261,219587379,0.928262,0.218641,0.011550,0.300653,-0.154760,-0.541278,0.260872
262,219604046,0.928282,0.218523,0.011561,0.300678,-0.102966,-0.556876,0.241275
263,219620713,0.928305,0.218357,0.011566,0.300726,-0.079182,-0.541970,0.243812
264,219637380,0.928333,0.218290,0.011656,0.300686,-0.081563,-0.507479,0.199178
265,219654047,0.928367,0.218196,0.011753,0.300646,-0.072660,-0.496579,0.251645
266,219670714,0.928394,0.218098,0.011863,0.300627,-0.138022,-0.485105,0.255509
267,219687381,0.928432,0.217943,0.011898,0.300621,-0.139105,-0.502266,0.247423
268,219704048,0.928462,0.217827,0.011949,0.300611,-0.121329,-0.505988,0.258594
269,219720715,0.928495,0.217719,0.012012,0.300587,-0.143214,-0.445363,0.277015
270,219737382,0.928541,0.217513,0.012038,0.300592,-0.097526,-0.456050,0.230275
271,219754049,0.928580,0.217392,0.012151,0.300553,-0.122051,-0.459971,0.235086
272,219770716,0.928617,0.217139,0.012140,0.300623,-0.122733,-0.490344,0.248483
273,219787383,0.928649,0.216886,0.012111,0.300709,-0.006962,-0.525491,0.265873
274,219804050,0.928659,0.216753,0.012162,0.300770,-0.063835,-0.549356,0.224411
275,219820717,0.928654,0.216763,0.012331,0.300771,-0.133425,-0.508712,0.244520
276,219837384,0.928689,0.216700,0.012397,0.300705,-0.116672,-0.452782,0.218012
277,219854051,0.928695,0.216680,0.012527,0.300695,-0.112186,-0.416821,0.249156
278,219870718,0.928709,0.216594,0.012616,0.300712,-0.119791,-0.413302,0.248573
279,219887385,0.928722,0.216468,0.012629,0.300761,-0.124268,-0.425966,0.242579
280,219904052,0.928739,0.216286,0.012592,0.300842,-0.118790,-0.475627,0.247972
281,219920719,0.928756,0.216148,0.012604,0.300889,-0.092987,-0.490273,0.265639
282,219937386,0.928781,0.216038,0.012673,0.300888,-0.096411,-0.478144,0.260101
283,219954053,0.928810,0.215961,0.012761,0.300849,-0.115951,-0.481445,0.241707
284,219970720,0.928844,0.215868,0.012831,0.300808,-0.114156,-0.443178,0.251345
285,219987387,0.928870,0.215784,0.012906,0.300784,-0.134390,-0.426906,0.260087
286,220004054,0.928908,0.215641,0.012909,0.300769,-0.110803,-0.427605,0.225196
287,220020721,0.928932,0.215551,0.012956,0.300756,-0.119737,-0.449786,0.235906
288,220037388,0.928970,0.215442,0.012969,0.300718,-0.102992,-0.466381,0.242784
289,220054055,0.928995,0.215398,0.013046,0.300668,-0.098006,-0.431267,0.261816
290,220070722,0.929025,0.215358,0.013101,0.300602,-0.073215,-0.429727,0.247414
291,220087389,0.929052,0.215348,0.013148,0.300524,-0.129921,-0.411636,0.242326
292,220104056,0.929075,0.215255,0.013074,0.300522,-0.159598,-0.479540,0.253119
293,220120723,0.929088,0.215243,0.013031,0.300493,-0.111249,-0.440453,0.221697
294,220137390,0.929085,0.215158,0.013031,0.300565,-0.054039,-0.429669,0.258090
295,220154057,0.929089,0.215072,0.013109,0.300609,-0.046893,-0.469404,0.247265
296,220170724,0.929092,0.214980,0.013175,0.300664,-0.002585,-0.497763,0.233229
297,220187391,0.929078,0.214957,0.013250,0.300719,-0.052895,-0.491403,0.241486
298,220204058,0.929067,0.215023,0.013296,0.300705,-0.093116,-0.477322,0.216557
299,220220725,0.929045,0.215126,0.013389,0.300693,-0.112233,-0.373481,0.236753
300,220237392,0.929051,0.215123,0.013489,0.300673,-0.091542,-0.313745,0.261954
301,220254059,0.929076,0.215028,0.013590,0.300660,-0.059202,-0.316236,0.235815
302,220270726,0.929083,0.215007,0.013730,0.300646,-0.068514,-0.371470,0.240305
303,220287393,0.929065,0.215040,0.013722,0.300680,-0.197664,-0.455933,0.247316
304,220304060,0.929024,0.215195,0.013593,0.300700,-0.209890,-0.498292,0.245297
305,220320727,0.929003,0.215316,0.013642,0.300677,-0.152892,-0.387407,0.311165
306,220337394,0.929027,0.215241,0.013673,0.300654,-0.152594,-0.394888,0.237373
307,220354061,0.929056,0.215219,0.013749,0.300578,-0.109406,-0.387083,0.240030
308,220370728,0.929085,0.215200,0.013770,0.300501,-0.094795,-0.318951,0.310888
309,220387395,0.929131,0.215036,0.013711,0.300479,-0.121323,-0.419898,0.236320
310,220404062,0.929170,0.214990,0.013673,0.300391,-0.080770,-0.428991,0.245244
311,220420729,0.929211,0.214892,0.013729,0.300334,-0.076369,-0.351794,0.297882
312,220437396,0.929294,0.214604,0.013690,0.300284,-0.041749,-0.438805,0.263697
313,220454063,0.929357,0.214423,0.013744,0.300217,-0.038754,-0.430956,0.228493
314,220470730,0.929405,0.214254,0.013740,0.300189,-0.085812,-0.450764,0.227401
315,220487397,0.929413,0.214197,0.013752,0.300204,-0.100301,-0.420942,0.215150
316,220504064,0.929405,0.214138,0.013796,0.300268,-0.128291,-0.376090,0.287069
317,220520731,0.929424,0.213946,0.013824,0.300344,-0.094872,-0.367859,0.242891
318,220537398,0.929462,0.213718,0.013862,0.300390,-0.051719,-0.422748,0.238028
319,220554065,0.929479,0.213550,0.013943,0.300449,-0.024275,-0.406393,0.215384
320,220570732,0.929488,0.213442,0.014038,0.300494,-0.062143,-0.401999,0.217679
321,220587399,0.929472,0.213433,0.014170,0.300546,-0.059959,-0.399223,0.183646
322,220604066,0.929451,0.213548,0.014329,0.300519,-0.131931,-0.364390,0.225750
323,220620733,0.929469,0.213477,0.014330,0.300514,-0.132216,-0.400151,0.299193
324,220637400,0.929487,0.213496,0.014406,0.300442,-0.084368,-0.364693,0.226195
325,220654067,0.929504,0.213480,0.014501,0.300398,-0.109682,-0.323031,0.256071
326,220670734,0.929528,0.213380,0.014553,0.300392,-0.128014,-0.329837,0.274554
327,220687401,0.929553,0.213312,0.014616,0.300358,-0.095181,-0.339800,0.271838
328,220704068,0.929576,0.213183,0.014685,0.300376,-0.100459,-0.333285,0.264427
329,220720735,0.929593,0.213094,0.014755,0.300384,-0.145803,-0.377474,0.239669
330,220737402,0.929601,0.212992,0.014739,0.300430,-0.129591,-0.354602,0.271733
331,220754069,0.929606,0.212884,0.014700,0.300494,-0.104358,-0.369772,0.241511
332,220770736,0.929605,0.212748,0.014625,0.300598,-0.144551,-0.353278,0.233502
333,220787403,0.929635,0.212490,0.014422,0.300696,-0.067273,-0.376784,0.218228
334,220804070,0.929650,0.212419,0.014357,0.300704,-0.040478,-0.397720,0.226204
335,220820737,0.929665,0.212424,0.014373,0.300653,-0.088600,-0.337002,0.259187
336,220837404,0.929712,0.212266,0.014314,0.300622,-0.038507,-0.323877,0.262369
337,220854071,0.929731,0.212155,0.014353,0.300641,-0.028835,-0.380248,0.249913
338,220870738,0.929751,0.212087,0.014417,0.300623,-0.051577,-0.377834,0.264510
339,220887405,0.929794,0.211995,0.014471,0.300551,-0.095341,-0.329864,0.230727
340,220904072,0.929816,0.211951,0.014574,0.300510,-0.086518,-0.335373,0.203271
341,220920739,0.929838,0.211900,0.014678,0.300475,-0.079120,-0.290958,0.256166
342,220937406,0.929861,0.211817,0.014750,0.300457,-0.051175,-0.328940,0.256922
343,220954073,0.929860,0.211795,0.014850,0.300471,-0.096599,-0.329191,0.259375
344,220970740,0.929876,0.211720,0.014845,0.300475,-0.136438,-0.315211,0.244187
345,220987407,0.929862,0.211713,0.014875,0.300523,-0.125347,-0.345460,0.242278
346,221004074,0.929863,0.211673,0.014914,0.300543,-0.116371,-0.323717,0.288540
347,221020741,0.929895,0.211504,0.014920,0.300564,-0.076627,-0.356898,0.305780
348,221037408,0.929922,0.211350,0.014965,0.300587,-0.076083,-0.372434,0.260683
349,221054075,0.929947,0.211237,0.014976,0.300588,-0.069583,-0.366470,0.251992
350,221070742,0.929967,0.211208,0.015009,0.300546,-0.097264,-0.308117,0.249792
351,221087409,0.929986,0.211152,0.014997,0.300527,-0.124764,-0.295686,0.219999
352,221104076,0.930002,0.211105,0.014979,0.300510,-0.112327,-0.300975,0.247020
353,221120743,0.930027,0.211046,0.014921,0.300479,-0.081158,-0.321447,0.271029
354,221137410,0.930043,0.211101,0.014956,0.300389,-0.063847,-0.295676,0.255350
355,221154077,0.930055,0.211080,0.014975,0.300364,-0.131312,-0.327195,0.242215
356,221170744,0.930078,0.211041,0.014896,0.300326,-0.035998,-0.380550,0.268949
357,221187411,0.930093,0.211038,0.014945,0.300279,-0.076779,-0.321367,0.293017
358,221204078,0.930127,0.210874,0.014940,0.300289,-0.041132,-0.324369,0.245462
359,221220745,0.930157,0.210814,0.015002,0.300234,-0.017041,-0.274083,0.238190
360,221237412,0.930182,0.210758,0.015122,0.300191,-0.043355,-0.234420,0.249820
361,221254079,0.930198,0.210709,0.015195,0.300170,-0.103780,-0.337646,0.235728
362,221270746,0.930193,0.210790,0.015267,0.300127,-0.085022,-0.300459,0.262992
363,221287413,0.930187,0.210784,0.015311,0.300148,-0.102300,-0.260739,0.278584
364,221304080,0.930197,0.210677,0.015302,0.300190,-0.082053,-0.306077,0.265622
365,221320747,0.930200,0.210547,0.015329,0.300271,-0.089623,-0.320861,0.252083
366,221337414,0.930201,0.210394,0.015296,0.300376,-0.099119,-0.312708,0.256996
367,221354081,0.930191,0.210309,0.015270,0.300469,-0.133771,-0.330576,0.243320
368,221370748,0.930198,0.210193,0.015235,0.300529,-0.089784,-0.319477,0.258033
369,221387415,0.930205,0.210179,0.015235,0.300519,-0.054107,-0.307534,0.266063
370,221404082,0.930224,0.210150,0.015236,0.300481,-0.120228,-0.269469,0.281084
371,221420749,0.930246,0.210032,0.015176,0.300496,-0.098351,-0.271034,0.268696
372,221437416,0.930271,0.209888,0.015099,0.300526,-0.078888,-0.274948,0.225436
373,221454083,0.930296,0.209757,0.015063,0.300539,-0.059908,-0.292775,0.210454
374,221470750,0.930306,0.209672,0.015064,0.300570,-0.065718,-0.297070,0.268273
375,221487417,0.930340,0.209456,0.014940,0.300622,0.005411,-0.357065,0.266125
376,221504084,0.930346,0.209446,0.014966,0.300607,0.017897,-0.361656,0.235801
377,221520751,0.930361,0.209482,0.015015,0.300533,-0.002793,-0.318706,0.245716
378,221537418,0.930361,0.209576,0.015121,0.300463,-0.087755,-0.277928,0.274031
379,221554085,0.930357,0.209610,0.015210,0.300446,-0.055954,-0.198325,0.254380
380,221570752,0.930358,0.209575,0.015273,0.300464,-0.076007,-0.222144,0.247828
381,221587419,0.930358,0.209562,0.015318,0.300471,-0.091587,-0.229495,0.209784
382,221604086,0.930359,0.209505,0.015317,0.300509,-0.125245,-0.217010,0.267184
383,221620753,0.930353,0.209399,0.015257,0.300605,-0.092354,-0.291367,0.255236
384,221637420,0.930337,0.209356,0.015242,0.300683,-0.069295,-0.310512,0.300326
385,221654087,0.930325,0.209329,0.015233,0.300739,-0.078238,-0.321707,0.273053
386,221670754,0.930333,0.209312,0.015229,0.300727,-0.071125,-0.295975,0.222371
387,221687421,0.930343,0.209347,0.015244,0.300672,-0.088757,-0.251593,0.238708
388,221704088,0.930353,0.209335,0.015272,0.300647,-0.104378,-0.228241,0.248776
389,221720755,0.930382,0.209250,0.015247,0.300619,-0.089563,-0.278019,0.244213
390,221737422,0.930388,0.209243,0.015246,0.300605,-0.072267,-0.290626,0.262261
391,221754089,0.930406,0.209201,0.015250,0.300577,-0.069377,-0.296404,0.257928
392,221770756,0.930427,0.209158,0.015242,0.300544,-0.032544,-0.305398,0.239647
393,221787423,0.930426,0.209230,0.015308,0.300492,-0.046682,-0.261938,0.287777
394,221804090,0.930454,0.209197,0.015340,0.300429,-0.058456,-0.219728,0.265030
395,221820757,0.930475,0.209111,0.015414,0.300417,-0.062522,-0.219302,0.243932
396,221837424,0.930497,0.209014,0.015470,0.300416,-0.062605,-0.230540,0.249723
397,221854091,0.930506,0.208928,0.015504,0.300446,-0.084268,-0.274606,0.239590
398,221870758,0.930522,0.208848,0.015504,0.300453,-0.079925,-0.296780,0.258367
399,221887425,0.930544,0.208819,0.015489,0.300403,-0.080693,-0.290153,0.226361
400,221904092,0.930558,0.208813,0.015515,0.300363,-0.061705,-0.244908,0.228515
401,221920759,0.930567,0.208802,0.015567,0.300341,-0.045844,-0.238849,0.189024
402,221937426,0.930554,0.208838,0.015610,0.300354,-0.057965,-0.244395,0.277319
403,221954093,0.930538,0.208850,0.015634,0.300395,-0.076860,-0.243351,0.269635
404,221970760,0.930524,0.208872,0.015632,0.300424,-0.122347,-0.278780,0.255350
405,221987427,0.930538,0.208894,0.015619,0.300364,-0.072648,-0.271120,0.272921
406,222004094,0.930542,0.208994,0.015647,0.300282,-0.089184,-0.227077,0.247382
407,222020761,0.930545,0.208984,0.015630,0.300279,-0.138106,-0.240871,0.266089
408,222037428,0.930573,0.208858,0.015586,0.300282,-0.012289,-0.255033,0.298009
409,222054095,0.930593,0.208682,0.015587,0.300341,-0.045255,-0.253261,0.309622
410,222070762,0.930614,0.208507,0.015596,0.300399,-0.009341,-0.263514,0.248258
411,222087429,0.930637,0.208504,0.015672,0.300326,-0.089635,-0.201313,0.244683
412,222104096,0.930683,0.208416,0.015701,0.300243,-0.104996,-0.174916,0.239205
413,222120763,0.930703,0.208378,0.015698,0.300208,-0.112260,-0.232850,0.236392
414,222137430,0.930734,0.208286,0.015680,0.300177,-0.039987,-0.194375,0.284057
415,222154097,0.930739,0.208127,0.015665,0.300271,-0.068196,-0.226861,0.286332
416,222170764,0.930753,0.207926,0.015591,0.300371,-0.037763,-0.259776,0.230165
417,222187431,0.930745,0.207817,0.015569,0.300472,-0.067662,-0.286209,0.219179
418,222204098,0.930745,0.207749,0.015545,0.300521,-0.073332,-0.235675,0.245828
419,222220765,0.930748,0.207706,0.015546,0.300540,-0.066581,-0.236580,0.261064
420,222237432,0.930755,0.207597,0.015488,0.300597,-0.072336,-0.214185,0.256877
421,222254099,0.930755,0.207542,0.015429,0.300639,-0.041918,-0.235399,0.247838
422,222270766,0.930772,0.207485,0.015373,0.300628,-0.031688,-0.222415,0.275982
423,222287433,0.930773,0.207420,0.015384,0.300668,-0.069915,-0.239096,0.261185
424,222304100,0.930780,0.207270,0.015354,0.300753,-0.065879,-0.225735,0.231071
425,222320767,0.930800,0.207181,0.015313,0.300753,-0.032379,-0.225290,0.215068
426,222337434,0.930790,0.207160,0.015298,0.300800,-0.098605,-0.219060,0.252649
427,222354101,0.930797,0.207053,0.015187,0.300858,-0.015579,-0.266639,0.245711
428,222370768,0.930790,0.207031,0.015124,0.300897,-0.033775,-0.235100,0.251801
429,222387435,0.930788,0.206993,0.015135,0.300930,-0.079818,-0.242267,0.263528
430,222404102,0.930802,0.206913,0.015137,0.300941,-0.072460,-0.201411,0.234012
431,222420769,0.930798,0.206872,0.015167,0.300980,-0.063997,-0.192086,0.281458
432,222437436,0.930794,0.206814,0.015168,0.301032,-0.056369,-0.167035,0.272251
433,222454103,0.930803,0.206698,0.015159,0.301085,-0.100453,-0.185115,0.251104
434,222470770,0.930816,0.206551,0.015047,0.301151,-0.086674,-0.208272,0.240260
435,222487437,0.930838,0.206426,0.014947,0.301172,-0.070152,-0.243947,0.245760
436,222504104,0.930876,0.206291,0.014849,0.301153,-0.044043,-0.256190,0.258689
437,222520771,0.930904,0.206185,0.014828,0.301139,-0.046653,-0.220837,0.269272
438,222537438,0.930949,0.206058,0.014820,0.301089,-0.026862,-0.208273,0.279566
439,222554105,0.930974,0.205965,0.014867,0.301073,-0.034790,-0.203066,0.221474
440,222570772,0.930992,0.205869,0.014897,0.301082,-0.072146,-0.193387,0.276329
441,222587439,0.931039,0.205710,0.014909,0.301044,-0.068661,-0.204394,0.245702
442,222604106,0.931059,0.205607,0.014971,0.301049,-0.086024,-0.257342,0.249207
443,222620773,0.931099,0.205526,0.015017,0.300978,-0.055671,-0.210210,0.261992
444,222637440,0.931133,0.205482,0.015049,0.300902,-0.044646,-0.241171,0.237190
445,222654107,0.931161,0.205430,0.015138,0.300846,-0.047600,-0.205661,0.246697
446,222670774,0.931187,0.205414,0.015209,0.300772,-0.081345,-0.185808,0.237242
447,222687441,0.931221,0.205304,0.015212,0.300743,-0.032175,-0.194509,0.257976
448,222704108,0.931240,0.205230,0.015252,0.300733,-0.056306,-0.235127,0.251132
449,222720775,0.931275,0.205165,0.015308,0.300665,-0.036001,-0.205581,0.239207
450,222737442,0.931289,0.205159,0.015377,0.300622,-0.049987,-0.219478,0.271216
451,222754109,0.931285,0.205166,0.015467,0.300625,-0.043291,-0.189200,0.242816
452,222770776,0.931300,0.205179,0.015529,0.300566,-0.078854,-0.184769,0.256441
453,222787443,0.931324,0.205123,0.015530,0.300530,-0.072182,-0.199864,0.253944
454,222804110,0.931341,0.205095,0.015548,0.300497,-0.047220,-0.151263,0.218683
455,222820777,0.931351,0.205079,0.015549,0.300478,-0.069485,-0.170328,0.267282
456,222837444,0.931362,0.205030,0.015535,0.300476,-0.056397,-0.211961,0.264999
457,222854111,0.931370,0.205079,0.015567,0.300415,-0.041818,-0.250547,0.239442
458,222870778,0.931354,0.205241,0.015635,0.300353,-0.080902,-0.195489,0.217322
459,222887445,0.931344,0.205277,0.015573,0.300361,-0.047756,-0.248232,0.276581
460,222904112,0.931350,0.205315,0.015682,0.300312,-0.031271,-0.191771,0.295849
461,222920779,0.931393,0.205256,0.015752,0.300214,-0.025441,-0.203997,0.242907
462,222937446,0.931416,0.205298,0.015881,0.300108,-0.021483,-0.155525,0.250137
463,222954113,0.931437,0.205286,0.015976,0.300047,-0.041731,-0.093028,0.284042
464,222970780,0.931452,0.205204,0.016088,0.300049,-0.073920,-0.192801,0.247701
465,222987447,0.931469,0.205195,0.016115,0.300003,-0.029670,-0.202115,0.279808
466,223004114,0.931500,0.205137,0.016137,0.299944,-0.051693,-0.159438,0.278718
467,223020781,0.931512,0.205020,0.016118,0.299986,-0.058335,-0.210266,0.263195
468,223037448,0.931518,0.204959,0.016121,0.300010,-0.044263,-0.185575,0.228456
469,223054115,0.931519,0.204906,0.016146,0.300043,-0.059259,-0.215324,0.232135
470,223070782,0.931530,0.204914,0.016178,0.300000,-0.020006,-0.252151,0.234736
471,223087449,0.931528,0.204914,0.016280,0.300001,-0.063720,-0.204504,0.272146
472,223104116,0.931557,0.204875,0.016346,0.299933,-0.068091,-0.163521,0.255996
473,223120783,0.931578,0.204857,0.016434,0.299876,-0.054678,-0.150945,0.251040
474,223137450,0.931590,0.204872,0.016487,0.299826,-0.079562,-0.153519,0.264352
475,223154117,0.931612,0.204815,0.016502,0.299798,-0.053292,-0.164835,0.244384
476,223170784,0.931627,0.204794,0.016523,0.299762,-0.058364,-0.177757,0.258244
477,223187451,0.931646,0.204749,0.016569,0.299731,-0.033271,-0.145929,0.264433
478,223204118,0.931657,0.204625,0.016530,0.299783,-0.025360,-0.218901,0.267376
479,223220785,0.931670,0.204578,0.016507,0.299777,0.030310,-0.185308,0.252866
480,223237452,0.931690,0.204532,0.016497,0.299748,-0.017499,-0.209942,0.242303
481,223254119,0.931683,0.204565,0.016579,0.299742,-0.084168,-0.164599,0.263122
482,223270786,0.931690,0.204550,0.016657,0.299728,-0.036681,-0.138326,0.260227
483,223287453,0.931694,0.204490,0.016708,0.299752,-0.072165,-0.165024,0.254005
484,223304120,0.931698,0.204465,0.016731,0.299754,-0.068338,-0.202663,0.257674
485,223320787,0.931701,0.204436,0.016719,0.299766,-0.050349,-0.185779,0.241113
486,223337454,0.931698,0.204424,0.016697,0.299785,-0.068539,-0.167815,0.202126
487,223354121,0.931678,0.204429,0.016671,0.299846,-0.036508,-0.154211,0.237636
488,223370788,0.931676,0.204389,0.016666,0.299879,-0.053027,-0.186495,0.288804
489,223387455,0.931681,0.204346,0.016671,0.299891,-0.052024,-0.175067,0.298464
490,223404122,0.931708,0.204280,0.016702,0.299850,-0.077722,-0.144852,0.286532
491,223420789,0.931730,0.204117,0.016696,0.299893,-0.060415,-0.156501,0.280673
492,223437456,0.931754,0.203993,0.016729,0.299903,-0.052161,-0.159609,0.269124
493,223454123,0.931771,0.203841,0.016725,0.299955,-0.048663,-0.193238,0.261409
494,223470790,0.931771,0.203780,0.016741,0.299993,-0.043899,-0.194488,0.256804
495,223487457,0.931773,0.203728,0.016755,0.300021,-0.039200,-0.166260,0.280473
496,223504124,0.931779,0.203649,0.016755,0.300056,-0.024689,-0.156429,0.222422
497,223520791,0.931788,0.203595,0.016762,0.300066,-0.005766,-0.158922,0.241873
498,223537458,0.931799,0.203580,0.016788,0.300039,-0.019809,-0.154198,0.248268
499,223554125,0.931790,0.203580,0.016822,0.300066,-0.042075,-0.172474,0.277275
500,223570792,0.931793,0.203554,0.016841,0.300074,-0.060321,-0.145436,0.258511
501,223587459,0.931802,0.203497,0.016834,0.300086,-0.043973,-0.158416,0.282372
502,223604126,0.931819,0.203431,0.016833,0.300077,-0.040230,-0.143024,0.258409
503,223620793,0.931842,0.203318,0.016795,0.300083,-0.031323,-0.154183,0.272906
504,223637460,0.931842,0.203243,0.016745,0.300138,-0.015176,-0.171791,0.266026
505,223654127,0.931853,0.203215,0.016720,0.300124,-0.060814,-0.186927,0.262626
506,223670794,0.931847,0.203216,0.016691,0.300142,-0.067869,-0.150880,0.257327
507,223687461,0.931855,0.203209,0.016672,0.300124,-0.036387,-0.151264,0.254214
508,223704128,0.931849,0.203270,0.016723,0.300097,-0.034496,-0.130589,0.263928
509,223720795,0.931862,0.203253,0.016750,0.300067,-0.079428,-0.140057,0.240742
510,223737462,0.931882,0.203217,0.016658,0.300034,-0.016587,-0.199154,0.277417
511,223754129,0.931902,0.203120,0.016693,0.300038,-0.013576,-0.141918,0.287333
512,223770796,0.931923,0.203023,0.016704,0.300036,-0.013589,-0.206675,0.222994
513,223787463,0.931946,0.203050,0.016772,0.299943,-0.021072,-0.116499,0.266776
514,223804130,0.931969,0.203021,0.016850,0.299888,-0.042606,-0.077212,0.261155
515,223820797,0.931994,0.203063,0.016935,0.299777,-0.080949,-0.141213,0.216641
516,223837464,0.931991,0.203107,0.016982,0.299754,-0.047609,-0.092468,0.295119
517,223854131,0.932011,0.203028,0.017015,0.299742,-0.069499,-0.103929,0.280371
518,223870798,0.932045,0.202918,0.017019,0.299712,-0.040186,-0.171829,0.224926
519,223887465,0.932047,0.202867,0.017023,0.299739,-0.011869,-0.174618,0.224532
520,223904132,0.932031,0.202876,0.017050,0.299780,-0.009477,-0.190286,0.215196
521,223920799,0.932025,0.202955,0.017116,0.299743,-0.063330,-0.146165,0.258715
522,223937466,0.932056,0.202960,0.017123,0.299643,-0.053224,-0.157267,0.238069
523,223954133,0.932086,0.203031,0.017160,0.299499,-0.067690,-0.154619,0.286331
524,223970800,0.932089,0.202991,0.017156,0.299518,-0.063863,-0.125376,0.301071
525,223987467,0.932119,0.202909,0.017143,0.299481,-0.052944,-0.161600,0.269999
526,224004134,0.932143,0.202864,0.017148,0.299435,-0.046967,-0.120778,0.273581
527,224020801,0.932168,0.202831,0.017166,0.299378,-0.013798,-0.113320,0.229654
528,224037468,0.932159,0.202884,0.017264,0.299365,-0.055646,-0.071871,0.260922
529,224054135,0.932175,0.202740,0.017169,0.299418,-0.070689,-0.151894,0.281410
530,224070802,0.932196,0.202666,0.017069,0.299409,0.021620,-0.149638,0.234297
531,224087469,0.932201,0.202637,0.016987,0.299419,-0.031789,-0.184469,0.261551
532,224104136,0.932204,0.202674,0.016979,0.299383,-0.092739,-0.162954,0.282496
533,224120803,0.932207,0.202635,0.017017,0.299398,-0.044405,-0.109858,0.214180
534,224137470,0.932219,0.202625,0.017033,0.299366,-0.056848,-0.114299,0.252548
535,224154137,0.932209,0.202584,0.017039,0.299426,-0.070021,-0.102372,0.268294
536,224170804,0.932200,0.202410,0.016957,0.299577,-0.026549,-0.172490,0.261069
537,224187471,0.932196,0.202349,0.016951,0.299629,0.005974,-0.151478,0.248071
538,224204138,0.932237,0.202251,0.016915,0.299572,-0.019279,-0.158052,0.221539
539,224220805,0.932254,0.202288,0.016958,0.299490,0.000689,-0.165354,0.250419
540,224237472,0.932253,0.202327,0.017046,0.299462,-0.010824,-0.133612,0.270432
541,224254139,0.932260,0.202359,0.017138,0.299414,-0.083633,-0.111574,0.250832
542,224270806,0.932287,0.202333,0.017176,0.299346,-0.057832,-0.126902,0.282660
543,224287473,0.932294,0.202295,0.017233,0.299345,-0.061539,-0.124510,0.236967
544,224304140,0.932312,0.202263,0.017240,0.299311,-0.049251,-0.130911,0.283123
545,224320807,0.932333,0.202241,0.017265,0.299259,-0.064128,-0.126974,0.250802
546,224337474,0.932336,0.202205,0.017263,0.299273,-0.055825,-0.153940,0.249797
547,224354141,0.932351,0.202170,0.017278,0.299251,-0.035517,-0.147686,0.284632
548,224370808,0.932352,0.202089,0.017309,0.299298,-0.041304,-0.129843,0.252198
549,224387475,0.932396,0.201974,0.017319,0.299241,-0.032349,-0.125425,0.209596
550,224404142,0.932401,0.201923,0.017394,0.299255,-0.070019,-0.113141,0.201768
551,224420809,0.932412,0.201867,0.017407,0.299257,-0.057174,-0.133780,0.244302
552,224437476,0.932388,0.201843,0.017418,0.299347,-0.048504,-0.127804,0.265096
553,224454143,0.932392,0.201794,0.017411,0.299368,-0.055171,-0.135932,0.233916
554,224470810,0.932389,0.201741,0.017405,0.299413,-0.029748,-0.118999,0.229665
555,224487477,0.932380,0.201705,0.017418,0.299466,0.027170,-0.128648,0.248738
556,224504144,0.932380,0.201726,0.017514,0.299446,-0.012095,-0.121168,0.250833
557,224520811,0.932400,0.201705,0.017611,0.299392,-0.022714,-0.113814,0.246248
558,224537478,0.932413,0.201731,0.017728,0.299325,-0.092946,-0.113298,0.232907
559,224554145,0.932424,0.201707,0.017712,0.299308,-0.066869,-0.101788,0.231892
560,224570812,0.932404,0.201752,0.017774,0.299338,-0.033841,-0.115226,0.217578
561,224587479,0.932411,0.201839,0.017836,0.299253,-0.064594,-0.134500,0.224481
562,224604146,0.932422,0.201861,0.017800,0.299208,-0.040248,-0.181612,0.289102
563,224620813,0.932449,0.201830,0.017904,0.299136,0.013151,-0.136966,0.292273
564,224637480,0.932458,0.201800,0.017980,0.299124,-0.018637,-0.175268,0.261143
565,224654147,0.932464,0.201854,0.018099,0.299062,0.007347,-0.109853,0.260565
566,224670814,0.932466,0.201914,0.018229,0.299008,-0.046680,-0.093645,0.278142
567,224687481,0.932470,0.201993,0.018385,0.298932,-0.064666,-0.112703,0.276764
568,224704148,0.932522,0.202031,0.018468,0.298738,-0.059243,-0.073774,0.290002
569,224720815,0.932566,0.201958,0.018558,0.298646,-0.037530,-0.064026,0.264945
570,224737482,0.932558,0.201865,0.018625,0.298730,-0.017623,-0.080271,0.259482
571,224754149,0.932564,0.201733,0.018690,0.298795,-0.031463,-0.118832,0.243525
572,224770816,0.932559,0.201623,0.018722,0.298885,-0.034507,-0.144971,0.236700
573,224787483,0.932562,0.201607,0.018818,0.298878,-0.053348,-0.131730,0.277464
574,224804150,0.932578,0.201514,0.018833,0.298890,-0.076940,-0.135236,0.277695
575,224820817,0.932597,0.201459,0.018885,0.298865,-0.047706,-0.122721,0.252098
576,224837484,0.932617,0.201420,0.018910,0.298827,-0.056990,-0.119370,0.241368
577,224854151,0.932632,0.201346,0.018892,0.298831,-0.049339,-0.128582,0.248945
578,224870818,0.932661,0.201276,0.018900,0.298789,-0.038463,-0.110364,0.256725
579,224887485,0.932697,0.201213,0.018882,0.298720,-0.011082,-0.112224,0.252560
580,224904152,0.932729,0.201203,0.018930,0.298625,-0.001687,-0.080697,0.270396
581,224920819,0.932770,0.201008,0.018864,0.298631,-0.032012,-0.131100,0.272633
582,224937486,0.932794,0.200858,0.018777,0.298663,0.036226,-0.144295,0.263341
583,224954153,0.932788,0.200797,0.018738,0.298725,-0.032790,-0.166793,0.235313
584,224970820,0.932787,0.200771,0.018708,0.298748,-0.077425,-0.144058,0.257652
585,224987487,0.932797,0.200714,0.018671,0.298754,-0.024074,-0.095510,0.258394
586,225004154,0.932799,0.200689,0.018688,0.298767,-0.016354,-0.083403,0.263901
587,225020821,0.932803,0.200639,0.018667,0.298787,-0.018478,-0.097168,0.225738
588,225037488,0.932773,0.200594,0.018659,0.298912,-0.037090,-0.115216,0.225715
589,225054155,0.932757,0.200556,0.018622,0.298991,-0.038522,-0.140775,0.226196
590,225070822,0.932752,0.200587,0.018652,0.298984,-0.032830,-0.110367,0.255125
591,225087489,0.932737,0.200582,0.018680,0.299031,-0.036847,-0.127217,0.274397
592,225104156,0.932758,0.200583,0.018724,0.298962,-0.033477,-0.113673,0.268353
593,225120823,0.932789,0.200572,0.018763,0.298869,-0.020765,-0.090011,0.258385
594,225137490,0.932801,0.200601,0.018820,0.298811,-0.068352,-0.102156,0.266689
595,225154157,0.932831,0.200550,0.018834,0.298751,-0.099964,-0.052702,0.296990
596,225170824,0.932868,0.200395,0.018845,0.298736,-0.050944,-0.091124,0.266476
597,225187491,0.932906,0.200287,0.018844,0.298692,-0.028476,-0.096851,0.237887
598,225204158,0.932955,0.200169,0.018867,0.298615,-0.009335,-0.076964,0.263838
599,225220825,0.932985,0.200024,0.018862,0.298621,0.000235,-0.115121,0.247442
600,225237492,0.932982,0.199978,0.018852,0.298660,-0.018582,-0.137825,0.241010
601,225254159,0.932980,0.199935,0.018879,0.298695,-0.030113,-0.111623,0.270900
602,225270826,0.932988,0.199811,0.018870,0.298751,-0.007415,-0.125371,0.264029
603,225287493,0.933002,0.199756,0.018905,0.298744,-0.023369,-0.136080,0.249093
604,225304160,0.933040,0.199692,0.018916,0.298668,-0.005085,-0.119773,0.269922
605,225320827,0.933046,0.199661,0.018967,0.298664,-0.017755,-0.113967,0.276121
606,225337494,0.933049,0.199616,0.019016,0.298683,-0.037360,-0.088501,0.215273
607,225354161,0.933058,0.199568,0.019029,0.298686,-0.035321,-0.088487,0.231982
608,225370828,0.933031,0.199567,0.019061,0.298770,-0.045770,-0.083969,0.270990
609,225387495,0.933034,0.199517,0.019075,0.298791,-0.027831,-0.092107,0.282785
610,225404162,0.933022,0.199522,0.019147,0.298821,-0.028197,-0.108993,0.260093
611,225420829,0.933014,0.199526,0.019165,0.298842,-0.062690,-0.100119,0.212023
612,225437496,0.932987,0.199651,0.019237,0.298839,-0.041631,-0.086191,0.256320
613,225454163,0.932975,0.199754,0.019259,0.298805,-0.079422,-0.109693,0.272079
614,225470830,0.932975,0.199775,0.019201,0.298795,-0.010051,-0.132065,0.298026
615,225487497,0.933016,0.199724,0.019256,0.298697,-0.007543,-0.090968,0.271852
616,225504164,0.933021,0.199645,0.019323,0.298731,0.008261,-0.130453,0.219007
617,225520831,0.933036,0.199657,0.019399,0.298673,-0.021103,-0.070851,0.241923
618,225537498,0.933060,0.199632,0.019416,0.298613,-0.041623,-0.055802,0.274832
619,225554165,0.933097,0.199615,0.019453,0.298505,-0.090162,-0.084367,0.256284
620,225570832,0.933103,0.199621,0.019487,0.298479,0.006093,-0.054581,0.262926
621,225587499,0.933115,0.199530,0.019510,0.298501,-0.034444,-0.054893,0.270023
622,225604166,0.933136,0.199410,0.019479,0.298519,-0.019192,-0.125462,0.272121
623,225620833,0.933131,0.199343,0.019474,0.298580,-0.002870,-0.140084,0.281073
624,225637500,0.933130,0.199313,0.019511,0.298599,0.000408,-0.143918,0.239352
625,225654167,0.933132,0.199330,0.019568,0.298580,-0.054379,-0.095091,0.213405
626,225670834,0.933131,0.199316,0.019589,0.298591,-0.093949,-0.059630,0.246889
627,225687501,0.933150,0.199257,0.019523,0.298573,-0.063898,-0.088222,0.266769
628,225704168,0.933155,0.199208,0.019532,0.298592,-0.025808,-0.104061,0.293745
629,225720835,0.933174,0.199142,0.019522,0.298576,-0.021151,-0.124782,0.291924
630,225737502,0.933183,0.199128,0.019523,0.298556,-0.021190,-0.123487,0.276446
631,225754169,0.933219,0.199071,0.019463,0.298486,-0.003577,-0.086936,0.217095
632,225770836,0.933189,0.199155,0.019494,0.298522,-0.051849,-0.057392,0.242520
633,225787503,0.933202,0.199057,0.019348,0.298556,-0.023475,-0.113755,0.299425
634,225804170,0.933218,0.198978,0.019252,0.298566,0.032274,-0.110780,0.254888
635,225820837,0.933222,0.198962,0.019233,0.298564,0.013623,-0.148739,0.292858
636,225837504,0.933223,0.198980,0.019241,0.298549,-0.030628,-0.100928,0.250939
637,225854171,0.933204,0.199032,0.019286,0.298570,-0.018906,-0.090220,0.221035
638,225870838,0.933176,0.199136,0.019288,0.298590,-0.058597,-0.081110,0.212545
639,225887505,0.933144,0.199255,0.019231,0.298614,-0.033432,-0.066716,0.234267
640,225904172,0.933110,0.199353,0.019168,0.298657,-0.049108,-0.055398,0.252081
641,225920839,0.933080,0.199400,0.019091,0.298726,-0.024686,-0.065776,0.243808
642,225937506,0.933051,0.199403,0.019038,0.298818,-0.026569,-0.105436,0.277658
643,225954173,0.933026,0.199391,0.018997,0.298905,-0.028816,-0.130987,0.255531
644,225970840,0.933019,0.199425,0.018936,0.298910,-0.056774,-0.141725,0.257554
645,225987507,0.933035,0.199462,0.018880,0.298839,-0.044065,-0.086505,0.280742
646,226004174,0.933046,0.199485,0.018864,0.298789,-0.031559,-0.061038,0.289956
647,226020841,0.933074,0.199439,0.018827,0.298735,-0.017505,-0.080733,0.233347
648,226037508,0.933078,0.199461,0.018834,0.298707,-0.030072,-0.094740,0.245195
649,226054175,0.933086,0.199481,0.018763,0.298673,-0.031336,-0.066145,0.231976
650,226070842,0.933068,0.199511,0.018729,0.298711,-0.012786,-0.079251,0.265640
651,226087509,0.933054,0.199523,0.018669,0.298750,-0.035588,-0.096001,0.254732
652,226104176,0.933058,0.199536,0.018636,0.298732,-0.007480,-0.074999,0.247277
653,226120843,0.933051,0.199579,0.018651,0.298726,-0.037759,-0.080364,0.265097
654,226137510,0.933037,0.199526,0.018635,0.298805,-0.029865,-0.064208,0.287704
655,226154177,0.933038,0.199461,0.018610,0.298845,-0.035875,-0.112358,0.245255
656,226170844,0.933057,0.199375,0.018533,0.298848,-0.047254,-0.081195,0.248245
657,226187511,0.933098,0.199198,0.018419,0.298845,-0.035647,-0.077459,0.254362
658,226204178,0.933130,0.199055,0.018318,0.298848,-0.019017,-0.120888,0.223004
659,226220845,0.933147,0.199034,0.018240,0.298813,-0.031335,-0.097130,0.249597
660,226237512,0.933140,0.199023,0.018150,0.298847,-0.037563,-0.082801,0.258806
661,226254179,0.933150,0.199022,0.018122,0.298819,-0.047360,-0.069426,0.252521
662,226270846,0.933168,0.199031,0.018092,0.298759,-0.036334,-0.051089,0.257526
663,226287513,0.933193,0.198984,0.018047,0.298713,-0.025845,-0.040669,0.252052
664,226304180,0.933193,0.198984,0.018030,0.298717,-0.012747,-0.088685,0.249421
665,226320847,0.933167,0.199091,0.018050,0.298726,-0.056950,-0.119357,0.205154
666,226337514,0.933159,0.199167,0.017934,0.298705,-0.051536,-0.145329,0.273825
667,226354181,0.933143,0.199217,0.017962,0.298720,0.015882,-0.114243,0.288692
668,226370848,0.933139,0.199244,0.018008,0.298712,0.013832,-0.093889,0.245866
669,226387515,0.933147,0.199322,0.018092,0.298630,-0.023068,-0.021692,0.224390
670,226404182,0.933140,0.199401,0.018189,0.298594,-0.030356,0.021319,0.274048
671,226420849,0.933147,0.199418,0.018302,0.298554,-0.070365,-0.045961,0.253710
672,226437516,0.933137,0.199454,0.018352,0.298556,-0.045939,-0.059150,0.281859
673,226454183,0.933146,0.199416,0.018404,0.298551,-0.019242,-0.058363,0.281678
674,226470850,0.933143,0.199364,0.018459,0.298593,-0.028129,-0.110402,0.239452
675,226487517,0.933140,0.199325,0.018475,0.298628,-0.022917,-0.129676,0.194341
676,226504184,0.933113,0.199394,0.018465,0.298665,-0.011834,-0.131370,0.220816
677,226520851,0.933076,0.199552,0.018496,0.298675,-0.039407,-0.113747,0.252462
678,226537518,0.933060,0.199711,0.018530,0.298614,-0.045039,-0.072355,0.266748
679,226554185,0.933070,0.199772,0.018587,0.298540,-0.032870,-0.066913,0.274626
680,226570852,0.933068,0.199808,0.018669,0.298517,-0.030526,-0.062942,0.265012
681,226587519,0.933074,0.199820,0.018748,0.298486,-0.058212,-0.059866,0.297075
682,226604186,0.933093,0.199762,0.018810,0.298461,-0.008457,-0.061952,0.252926
683,226620853,0.933099,0.199753,0.018856,0.298446,-0.031813,-0.083075,0.238046
684,226637520,0.933092,0.199818,0.018941,0.298419,-0.020659,-0.042505,0.232985
685,226654187,0.933090,0.199776,0.018922,0.298454,-0.024102,-0.077794,0.264525
686,226670854,0.933089,0.199719,0.018946,0.298493,0.074422,-0.067735,0.261419
687,226687521,0.933082,0.199707,0.019002,0.298520,0.027969,-0.109302,0.256989
688,226704188,0.933075,0.199764,0.019118,0.298496,-0.063044,-0.094326,0.259371
689,226720855,0.933077,0.199758,0.019111,0.298494,-0.044529,-0.073148,0.230453
690,226737522,0.933047,0.199870,0.019202,0.298507,-0.057430,-0.044045,0.267760
691,226754189,0.933052,0.199859,0.019235,0.298497,-0.069780,-0.031514,0.253326
692,226770856,0.933040,0.199848,0.019270,0.298538,-0.025012,-0.051701,0.243603
693,226787523,0.933039,0.199781,0.019249,0.298589,-0.045025,-0.075407,0.236743
694,226804190,0.933053,0.199716,0.019215,0.298590,-0.038131,-0.118787,0.258615
695,226820857,0.933061,0.199727,0.019212,0.298560,-0.037816,-0.107968,0.256625
696,226837524,0.933088,0.199693,0.019190,0.298498,-0.043908,-0.099062,0.288482
697,226854191,0.933111,0.199639,0.019191,0.298461,-0.015749,-0.092261,0.270771
698,226870858,0.933136,0.199581,0.019234,0.298419,-0.021542,-0.035218,0.251606
699,226887525,0.933160,0.199488,0.019269,0.298404,-0.015856,-0.032552,0.226715
700,226904192,0.933183,0.199417,0.019264,0.298382,-0.004685,-0.103015,0.233119
701,226920859,0.933179,0.199400,0.019287,0.298402,-0.028054,-0.083400,0.255712
702,226937526,0.933170,0.199412,0.019316,0.298422,-0.022625,-0.140267,0.228906
703,226954193,0.933150,0.199485,0.019371,0.298432,-0.018854,-0.112710,0.264029
704,226970860,0.933133,0.199557,0.019413,0.298435,-0.018687,-0.057033,0.252900
705,226987527,0.933115,0.199620,0.019448,0.298447,-0.004201,-0.071400,0.278130
706,227004194,0.933079,0.199646,0.019519,0.298537,-0.030127,-0.024031,0.248982
707,227020861,0.933071,0.199635,0.019515,0.298569,-0.033270,-0.055001,0.239094
708,227037528,0.933059,0.199660,0.019502,0.298591,-0.048845,-0.070927,0.261681
709,227054195,0.933057,0.199650,0.019468,0.298606,-0.063041,-0.076353,0.247130
710,227070862,0.933058,0.199678,0.019468,0.298586,-0.019578,-0.088681,0.256135
711,227087529,0.933045,0.199659,0.019477,0.298638,-0.027977,-0.044963,0.247245
712,227104196,0.933047,0.199610,0.019490,0.298662,-0.017956,-0.083211,0.270283
713,227120863,0.933040,0.199612,0.019499,0.298683,-0.025421,-0.078509,0.235948
714,227137530,0.933049,0.199613,0.019499,0.298653,-0.046390,-0.064381,0.251745
715,227154197,0.933054,0.199636,0.019502,0.298624,-0.019932,-0.066052,0.265992
716,227170864,0.933060,0.199697,0.019554,0.298559,-0.036381,-0.036878,0.221677
717,227187531,0.933059,0.199761,0.019532,0.298521,-0.055684,-0.073512,0.204711
718,227204198,0.933060,0.199798,0.019429,0.298498,-0.030739,-0.076315,0.219856
719,227220865,0.933052,0.199793,0.019436,0.298529,0.022098,-0.106967,0.322463
720,227237532,0.933060,0.199772,0.019472,0.298517,0.054097,-0.129324,0.277385
721,227254199,0.933071,0.199810,0.019568,0.298448,0.009733,-0.072980,0.247853
722,227270866,0.933070,0.199904,0.019689,0.298381,-0.039684,-0.044350,0.257460
723,227287533,0.933071,0.200025,0.019817,0.298289,-0.034090,-0.050254,0.232939
724,227304200,0.933058,0.200132,0.019869,0.298255,-0.035811,-0.014499,0.290791
725,227320867,0.933056,0.200159,0.019884,0.298241,-0.037679,-0.004532,0.275331
726,227337534,0.933055,0.200093,0.019873,0.298290,-0.019738,-0.075336,0.268177
727,227354201,0.933050,0.200066,0.019883,0.298322,-0.063777,-0.103644,0.241110
728,227370868,0.933046,0.200073,0.019901,0.298327,-0.070507,-0.096302,0.228129
729,227387535,0.933044,0.200070,0.019903,0.298338,-0.050497,-0.086649,0.222876
730,227404202,0.933054,0.200082,0.019917,0.298298,-0.039992,-0.078345,0.251306
731,227420869,0.933048,0.200094,0.019924,0.298307,-0.028789,-0.083406,0.293715
732,227437536,0.933055,0.200074,0.019915,0.298299,-0.026015,-0.063999,0.276618
733,227454203,0.933038,0.200117,0.019990,0.298318,-0.040908,-0.100959,0.235205
734,227470870,0.933039,0.200137,0.020027,0.298300,-0.050476,-0.042347,0.250087
735,227487537,0.933045,0.200120,0.020045,0.298289,-0.032028,-0.033837,0.222233
736,227504204,0.933061,0.200114,0.020021,0.298247,-0.032922,-0.033028,0.236291
737,227520871,0.933071,0.200067,0.019940,0.298252,0.022177,-0.090642,0.261637
738,227537538,0.933068,0.200078,0.019917,0.298254,0.039810,-0.076045,0.263338
739,227554205,0.933049,0.200151,0.019947,0.298265,-0.019083,-0.115565,0.251731
740,227570872,0.933043,0.200163,0.020027,0.298270,-0.084317,-0.051265,0.269929
741,227587539,0.933054,0.200102,0.020086,0.298272,-0.024751,-0.077153,0.220382
742,227604206,0.933070,0.200135,0.020174,0.298192,-0.021319,-0.051094,0.287951
743,227620873,0.933063,0.200121,0.020221,0.298221,-0.010075,-0.049898,0.274905
744,227637540,0.933035,0.200164,0.020231,0.298279,-0.006307,-0.078558,0.228861
745,227654207,0.932986,0.200254,0.020252,0.298373,-0.020604,-0.058826,0.245765
746,227670874,0.932952,0.200360,0.020250,0.298407,-0.027934,-0.083954,0.263000
747,227687541,0.932934,0.200404,0.020266,0.298431,-0.019901,-0.046538,0.270836
748,227704208,0.932930,0.200409,0.020226,0.298443,-0.046833,-0.066922,0.262637
749,227720875,0.932906,0.200427,0.020185,0.298509,-0.049220,-0.064964,0.285256
750,227737542,0.932905,0.200428,0.020104,0.298519,-0.056361,-0.061492,0.267057
751,227754209,0.932905,0.200395,0.020023,0.298546,-0.039653,-0.051970,0.249530
752,227770876,0.932881,0.200450,0.019959,0.298588,-0.029845,-0.081060,0.235901
753,227787543,0.932861,0.200547,0.019859,0.298590,-0.052088,-0.042827,0.226393
754,227804210,0.932855,0.200680,0.019641,0.298536,-0.079311,-0.062305,0.210455
755,227820877,0.932826,0.200899,0.019416,0.298493,-0.020702,-0.032717,0.248206
756,227837544,0.932828,0.201048,0.019235,0.298399,-0.042365,0.045516,0.266025
757,227854211,0.932853,0.201035,0.019001,0.298343,0.036283,-0.008761,0.240058
758,227870878,0.932859,0.201107,0.018934,0.298281,0.021030,-0.049602,0.272631
759,227887545,0.932867,0.201157,0.018871,0.298226,-0.000962,-0.069014,0.262328
760,227904212,0.932875,0.201241,0.018877,0.298145,0.002400,-0.135057,0.246520
761,227920879,0.932886,0.201360,0.018910,0.298028,-0.014525,-0.138037,0.255563
762,227937546,0.932875,0.201463,0.018943,0.297992,0.005908,-0.122173,0.245414
763,227954213,0.932858,0.201683,0.019029,0.297887,0.033619,-0.128805,0.231816
764,227970880,0.932805,0.201955,0.019141,0.297865,-0.013374,-0.061930,0.247317
765,227987547,0.932773,0.202129,0.019155,0.297843,-0.002602,-0.038601,0.254654
766,228004214,0.932744,0.202257,0.019203,0.297845,-0.011910,-0.028329,0.281635
767,228020881,0.932728,0.202309,0.019214,0.297859,0.003158,-0.056729,0.323114
768,228037548,0.932711,0.202349,0.019276,0.297881,-0.025079,-0.069072,0.268190
769,228054215,0.932659,0.202507,0.019312,0.297934,-0.101017,-0.076491,0.240809
770,228070882,0.932617,0.202590,0.019194,0.298017,-0.115231,-0.067827,0.245723
771,228087549,0.932585,0.202599,0.019106,0.298119,-0.058090,-0.062470,0.303276
772,228104216,0.932581,0.202501,0.018913,0.298209,-0.082128,-0.069282,0.249232
773,228120883,0.932580,0.202453,0.018807,0.298249,-0.045683,-0.059677,0.251287
774,228137550,0.932577,0.202443,0.018689,0.298274,-0.045498,-0.033289,0.275888
775,228154217,0.932598,0.202413,0.018645,0.298231,-0.037539,-0.050940,0.294851
776,228170884,0.932615,0.202377,0.018585,0.298208,-0.045837,-0.064743,0.266689
777,228187551,0.932638,0.202328,0.018567,0.298171,0.003643,-0.027657,0.233109
778,228204218,0.932662,0.202264,0.018534,0.298141,0.001900,-0.067479,0.224596
779,228220885,0.932670,0.202201,0.018526,0.298157,0.021590,-0.057120,0.227419
780,228237552,0.932696,0.202123,0.018515,0.298131,0.011469,-0.067502,0.229783
781,228254219,0.932719,0.202081,0.018498,0.298087,-0.004649,-0.054398,0.224116
782,228270886,0.932787,0.201827,0.018292,0.298061,-0.042920,-0.043968,0.240172
783,228287553,0.932836,0.201605,0.018135,0.298067,-0.030928,-0.092962,0.246347
784,228304220,0.932874,0.201458,0.018072,0.298052,-0.026523,-0.086263,0.290903
785,228320887,0.932900,0.201320,0.018021,0.298065,-0.008345,-0.067639,0.253336
786,228337554,0.932912,0.201227,0.018024,0.298092,0.010100,-0.036389,0.243579
787,228354221,0.932909,0.201147,0.018042,0.298152,0.019409,-0.028794,0.208479
788,228370888,0.932897,0.201122,0.018129,0.298201,-0.029960,-0.024312,0.232187
789,228387555,0.932899,0.201007,0.018097,0.298275,-0.082412,-0.096923,0.284278
790,228404222,0.932905,0.200914,0.018065,0.298320,-0.009004,-0.087546,0.267387
791,228420889,0.932918,0.200863,0.018010,0.298319,-0.009034,-0.092928,0.267861
792,228437556,0.932914,0.200893,0.018060,0.298308,-0.024236,-0.030299,0.239872
793,228454223,0.932903,0.200830,0.017987,0.298389,-0.027134,-0.030166,0.253915
794,228470890,0.932905,0.200812,0.017921,0.298399,-0.066346,-0.021170,0.266063
795,228487557,0.932926,0.200700,0.017782,0.298415,-0.077320,-0.060793,0.244335
796,228504224,0.932948,0.200618,0.017706,0.298407,-0.039279,-0.053982,0.265027
797,228520891,0.932979,0.200486,0.017620,0.298404,-0.011805,-0.064187,0.245875
798,228537558,0.933004,0.200358,0.017577,0.298415,0.004100,-0.113770,0.240200
799,228554225,0.933011,0.200283,0.017561,0.298445,-0.003779,-0.091691,0.245107
800,228570892,0.933021,0.200221,0.017530,0.298455,-0.027818,-0.073943,0.253449
801,228587559,0.933042,0.200116,0.017514,0.298462,-0.013306,-0.023754,0.257941
802,228604226,0.933073,0.199989,0.017510,0.298451,-0.032947,-0.034119,0.283004
803,228620893,0.933096,0.199854,0.017502,0.298468,-0.022116,-0.025063,0.241820
804,228637560,0.933112,0.199692,0.017464,0.298530,0.004849,-0.057929,0.256868
805,228654227,0.933126,0.199591,0.017421,0.298558,0.025214,-0.064992,0.249720
806,228670894,0.933143,0.199503,0.017450,0.298561,-0.009722,-0.042132,0.258864
807,228687561,0.933149,0.199434,0.017470,0.298588,-0.011607,-0.058223,0.273810
808,228704228,0.933160,0.199372,0.017496,0.298593,-0.030669,-0.034229,0.230877
809,228720895,0.933151,0.199324,0.017457,0.298654,-0.047887,-0.044085,0.246435
810,228737562,0.933158,0.199293,0.017442,0.298656,-0.047302,-0.031760,0.260276
811,228754229,0.933159,0.199225,0.017416,0.298698,-0.035098,-0.023678,0.273256
812,228770896,0.933184,0.199124,0.017402,0.298689,0.003842,-0.041646,0.248634
813,228787563,0.933189,0.199055,0.017423,0.298717,-0.033318,-0.076894,0.265069
814,228804230,0.933216,0.198970,0.017391,0.298690,-0.032257,-0.085090,0.255938
815,228820897,0.933235,0.198961,0.017362,0.298639,-0.060141,-0.114168,0.227741
816,228837564,0.933259,0.199003,0.017324,0.298540,-0.013575,-0.039837,0.256633
817,228854231,0.933263,0.199002,0.017288,0.298528,-0.055109,-0.068548,0.253050
818,228870898,0.933281,0.198939,0.017206,0.298519,-0.018337,-0.053326,0.286289
819,228887565,0.933294,0.198872,0.017130,0.298527,-0.013931,-0.020669,0.245686
820,228904232,0.933309,0.198865,0.017081,0.298489,0.027759,-0.043454,0.216157
821,228920899,0.933333,0.198796,0.017046,0.298462,-0.069896,-0.050274,0.243564
822,228937566,0.933353,0.198700,0.016922,0.298471,0.040194,-0.085051,0.277590
823,228954233,0.933365,0.198671,0.016975,0.298448,0.003423,-0.042018,0.249373
824,228970900,0.933370,0.198692,0.017045,0.298414,-0.024857,-0.041707,0.240068
825,228987567,0.933352,0.198761,0.017082,0.298423,-0.043508,-0.003185,0.230854
826,229004234,0.933343,0.198833,0.017110,0.298401,-0.085184,0.021973,0.261960
827,229020901,0.933333,0.198888,0.017107,0.298396,-0.077120,-0.055102,0.279806
828,229037568,0.933334,0.198937,0.017073,0.298363,-0.032624,-0.010030,0.303182
829,229054235,0.933354,0.198892,0.017039,0.298333,-0.017433,-0.035712,0.246421
830,229070902,0.933356,0.198877,0.017085,0.298332,0.001032,-0.060010,0.276134
831,229087569,0.933352,0.198879,0.017177,0.298338,-0.016235,-0.091997,0.251999
832,229104236,0.933337,0.198950,0.017295,0.298331,0.004712,-0.085306,0.273293
833,229120903,0.933308,0.199053,0.017426,0.298346,-0.012523,-0.096139,0.258039
834,229137570,0.933285,0.199197,0.017540,0.298316,0.010037,-0.096939,0.229140
835,229154237,0.933253,0.199347,0.017654,0.298309,0.016333,-0.047939,0.248038
836,229170904,0.933227,0.199488,0.017824,0.298287,0.017908,-0.044598,0.259718
837,229187571,0.933192,0.199617,0.017949,0.298302,0.010314,-0.062855,0.250700
838,229204238,0.933146,0.199758,0.018090,0.298341,-0.009904,-0.040795,0.252143
839,229220905,0.933109,0.199889,0.018188,0.298364,-0.012449,-0.021211,0.262125
840,229237572,0.933093,0.199995,0.018286,0.298339,-0.053376,-0.024586,0.261621
841,229254239,0.933087,0.199946,0.018275,0.298389,-0.040811,-0.052037,0.276213
842,229270906,0.933071,0.199933,0.018310,0.298446,0.002082,-0.042285,0.252769
843,229287573,0.933064,0.199920,0.018386,0.298473,-0.005064,-0.046091,0.226102
844,229304240,0.933052,0.199925,0.018465,0.298502,-0.083844,-0.047704,0.276027
845,229320907,0.933045,0.199943,0.018520,0.298507,-0.030057,-0.039734,0.244661
846,229337574,0.933039,0.200012,0.018547,0.298477,-0.066888,-0.008257,0.274210
847,229354241,0.933050,0.200004,0.018527,0.298451,-0.061138,0.017901,0.253537
848,229370908,0.933067,0.199898,0.018485,0.298470,0.000263,0.000338,0.242283
849,229387575,0.933084,0.199770,0.018447,0.298506,0.008943,-0.079211,0.250485
850,229404242,0.933082,0.199689,0.018477,0.298566,0.018578,-0.115892,0.236208
851,229420909,0.933075,0.199690,0.018582,0.298580,-0.008147,-0.128698,0.264369
852,229437576,0.933071,0.199764,0.018716,0.298533,-0.036894,-0.101151,0.253882
853,229454243,0.933078,0.199846,0.018861,0.298448,-0.036942,-0.011436,0.264559
854,229470910,0.933080,0.199859,0.018909,0.298429,-0.033721,-0.013222,0.210668
855,229487577,0.933069,0.199878,0.018904,0.298453,-0.017121,-0.011036,0.222543
856,229504244,0.933046,0.199875,0.018910,0.298525,0.010017,-0.035368,0.234187
857,229520911,0.933039,0.199885,0.018905,0.298542,-0.018596,-0.064789,0.270916
858,229537578,0.933019,0.199947,0.018931,0.298560,0.000398,-0.058029,0.264389
859,229554245,0.933018,0.199972,0.018967,0.298545,-0.015145,-0.050314,0.298436
860,229570912,0.933017,0.199953,0.018981,0.298561,-0.028013,-0.095338,0.263357
861,229587579,0.932997,0.200014,0.019046,0.298577,-0.042330,-0.051658,0.246406
862,229604246,0.932994,0.200006,0.019049,0.298593,-0.010962,-0.024045,0.240788
863,229620913,0.932976,0.200087,0.019081,0.298590,-0.044541,-0.023440,0.207232
864,229637580,0.932964,0.200190,0.019071,0.298562,-0.029989,-0.006558,0.253512
865,229654247,0.932964,0.200220,0.019047,0.298541,-0.049354,-0.036614,0.274463
866,229670914,0.932964,0.200213,0.018993,0.298550,0.014584,-0.090364,0.286336
867,229687581,0.932956,0.200176,0.018993,0.298601,-0.013623,-0.073086,0.270991
868,229704248,0.932952,0.200155,0.019012,0.298626,-0.009430,-0.115474,0.210085
869,229720915,0.932947,0.200241,0.019011,0.298584,0.003286,-0.064379,0.265388
870,229737582,0.932946,0.200306,0.019030,0.298542,-0.009940,-0.053371,0.274067
871,229754249,0.932936,0.200460,0.019081,0.298465,-0.016396,-0.036984,0.241842
872,229770916,0.932928,0.200567,0.018984,0.298426,-0.033294,-0.040963,0.250018
873,229787583,0.932910,0.200577,0.018923,0.298481,0.000065,-0.026377,0.281038
874,229804250,0.932897,0.200561,0.018757,0.298543,-0.002394,-0.050246,0.249922
875,229820917,0.932880,0.200627,0.018624,0.298557,0.017368,-0.016880,0.241949
876,229837584,0.932890,0.200687,0.018547,0.298491,-0.012098,0.046473,0.255893
877,229854251,0.932944,0.200580,0.018386,0.298406,-0.071103,-0.003578,0.286994
878,229870918,0.932990,0.200448,0.018162,0.298365,-0.028036,-0.064385,0.272367
879,229887585,0.933024,0.200289,0.018005,0.298374,-0.038933,-0.002998,0.341114
880,229904252,0.933083,0.199846,0.017734,0.298501,-0.041766,-0.060828,0.300010
881,229920919,0.933118,0.199486,0.017503,0.298649,-0.017441,-0.126329,0.169625
882,229937586,0.933125,0.199377,0.017379,0.298706,0.012219,-0.113014,0.184601
883,229954253,0.933134,0.199336,0.017289,0.298709,0.062424,-0.068933,0.220466
884,229970920,0.933161,0.199274,0.017254,0.298670,0.033299,-0.074680,0.222714
885,229987587,0.933160,0.199294,0.017235,0.298659,0.045740,-0.087323,0.245209
886,230004254,0.933153,0.199439,0.017297,0.298581,-0.002440,-0.058217,0.294813
887,230020921,0.933141,0.199538,0.017336,0.298549,-0.030397,-0.054456,0.285721
888,230037588,0.933153,0.199576,0.017299,0.298489,-0.056567,0.009085,0.273065
889,230054255,0.933144,0.199623,0.017243,0.298489,-0.049432,0.020013,0.224259
890,230070922,0.933123,0.199730,0.017160,0.298488,-0.052838,0.058720,0.240933
891,230087589,0.933112,0.199727,0.017022,0.298531,-0.041034,-0.017149,0.292287
892,230104256,0.933104,0.199663,0.016873,0.298607,0.056885,-0.100361,0.269935
893,230120923,0.933076,0.199760,0.016827,0.298633,0.024866,-0.118448,0.258184
894,230137590,0.933042,0.199935,0.016835,0.298623,-0.023272,-0.094995,0.246801
895,230154257,0.933013,0.200131,0.016808,0.298584,-0.030015,-0.029873,0.254255
896,230170924,0.933003,0.200221,0.016802,0.298553,-0.053790,0.005124,0.240508
897,230187591,0.932980,0.200285,0.016778,0.298585,-0.081639,0.005392,0.254332
898,230204258,0.932948,0.200306,0.016671,0.298677,-0.060332,-0.015993,0.231404
899,230220925,0.932931,0.200318,0.016528,0.298729,0.002393,-0.045322,0.235039
900,230237592,0.932913,0.200373,0.016408,0.298756,0.010045,-0.042000,0.257994
901,230254259,0.932896,0.200426,0.016307,0.298780,-0.026314,-0.071243,0.285810
902,230270926,0.932884,0.200478,0.016240,0.298786,0.007222,-0.067637,0.244275
903,230287593,0.932875,0.200506,0.016156,0.298798,-0.010500,-0.075164,0.298020
904,230304260,0.932873,0.200520,0.016148,0.298795,0.030015,-0.071158,0.324192
905,230320927,0.932884,0.200510,0.016201,0.298766,-0.014660,-0.020834,0.283132
906,230337594,0.932906,0.200489,0.016293,0.298705,-0.011271,-0.030825,0.273780
907,230354261,0.932918,0.200483,0.016451,0.298665,-0.022302,-0.014615,0.307812
908,230370928,0.932935,0.200430,0.016699,0.298631,-0.033903,-0.009325,0.294554
909,230387595,0.932952,0.200271,0.016902,0.298675,-0.022849,-0.015347,0.242337
910,230404262,0.932953,0.200185,0.017022,0.298723,-0.011637,-0.025907,0.206263
911,230420929,0.932983,0.200053,0.017119,0.298712,-0.072691,-0.032125,0.232706
912,230437596,0.933019,0.199820,0.017156,0.298752,-0.008168,-0.033066,0.246390
913,230454263,0.933052,0.199570,0.017191,0.298815,-0.019235,-0.053559,0.253740
914,230470930,0.933069,0.199375,0.017288,0.298887,-0.013230,-0.087957,0.257831
915,230487597,0.933087,0.199170,0.017297,0.298967,-0.024617,-0.093892,0.252636
916,230504264,0.933082,0.199120,0.017319,0.299014,-0.021204,-0.104744,0.202447
917,230520931,0.933086,0.199153,0.017343,0.298979,-0.001579,-0.052174,0.249751
918,230537598,0.933095,0.199238,0.017415,0.298889,-0.037723,0.040825,0.200867
919,230554265,0.933110,0.199231,0.017411,0.298847,-0.042510,0.017393,0.259447
920,230570932,0.933116,0.199237,0.017459,0.298821,0.007683,-0.041212,0.278571
921,230587599,0.933103,0.199352,0.017584,0.298778,-0.054632,-0.047877,0.229856
922,230604266,0.933090,0.199432,0.017611,0.298763,-0.108342,-0.076946,0.267180
923,230620933,0.933088,0.199463,0.017662,0.298746,0.000907,-0.062108,0.268226
924,230637600,0.933081,0.199584,0.017748,0.298682,0.021177,-0.059943,0.202333
925,230654267,0.933077,0.199702,0.017825,0.298611,0.015707,-0.008090,0.253084
926,230670934,0.933064,0.199848,0.017953,0.298547,0.009414,0.006605,0.251801
927,230687601,0.933057,0.199976,0.018100,0.298473,-0.014696,-0.045069,0.277304
928,230704268,0.933036,0.200179,0.018266,0.298394,-0.014418,-0.063714,0.282635
929,230720935,0.933032,0.200370,0.018470,0.298265,-0.028815,-0.021826,0.274087
930,230737602,0.933022,0.200472,0.018583,0.298222,-0.017191,-0.037016,0.201019
931,230754269,0.932988,0.200612,0.018706,0.298225,-0.037906,-0.040846,0.241345
932,230770936,0.932963,0.200682,0.018763,0.298255,-0.001343,-0.045501,0.214676
933,230787603,0.932921,0.200794,0.018869,0.298303,0.006072,-0.056934,0.253889
934,230804270,0.932895,0.200867,0.018988,0.298327,-0.017829,-0.052110,0.265815
935,230820937,0.932886,0.200954,0.019088,0.298288,-0.012795,-0.067970,0.259166
936,230837604,0.932878,0.201064,0.019227,0.298231,-0.026456,0.003756,0.282144
937,230854271,0.932876,0.201078,0.019298,0.298226,-0.036345,-0.005210,0.260139
938,230870938,0.932871,0.201111,0.019357,0.298214,-0.045660,-0.028762,0.249542
939,230887605,0.932871,0.201112,0.019371,0.298210,-0.030254,-0.000264,0.274473
940,230904272,0.932866,0.201164,0.019401,0.298191,-0.037119,-0.026269,0.239852
941,230920939,0.932861,0.201173,0.019432,0.298198,-0.063204,-0.023103,0.314854
942,230937606,0.932903,0.201021,0.019338,0.298177,0.044280,-0.029769,0.261638
943,230954273,0.932914,0.201020,0.019358,0.298141,-0.003943,-0.084828,0.233676
944,230970940,0.932914,0.201017,0.019359,0.298142,-0.053609,-0.106674,0.234052
945,230987607,0.932912,0.201059,0.019322,0.298123,-0.019979,-0.082454,0.283917
946,231004274,0.932895,0.201181,0.019382,0.298089,0.016693,-0.036230,0.233154
947,231020941,0.932871,0.201326,0.019427,0.298064,-0.011864,-0.006861,0.244358
948,231037608,0.932859,0.201427,0.019435,0.298033,0.026631,0.022361,0.253795
949,231054275,0.932863,0.201432,0.019398,0.298020,0.020677,-0.004846,0.240993
950,231070942,0.932854,0.201488,0.019386,0.298010,0.026843,-0.040255,0.255197
951,231087609,0.932829,0.201562,0.019415,0.298038,-0.006813,-0.057994,0.309768
952,231104276,0.932794,0.201610,0.019470,0.298109,-0.055964,-0.074658,0.275930
953,231120943,0.932763,0.201735,0.019551,0.298118,-0.030512,-0.028392,0.245355
954,231137610,0.932752,0.201803,0.019613,0.298101,-0.037135,0.010561,0.292006
955,231154277,0.932758,0.201792,0.019655,0.298088,-0.016280,0.029171,0.234143
956,231170944,0.932769,0.201718,0.019664,0.298104,-0.020490,-0.024423,0.224684
957,231187611,0.932761,0.201724,0.019683,0.298124,-0.024055,-0.053262,0.230156
958,231204278,0.932757,0.201749,0.019712,0.298116,-0.003189,-0.069118,0.259277
959,231220945,0.932742,0.201812,0.019777,0.298117,-0.023140,-0.061030,0.258835
960,231237612,0.932741,0.201902,0.019846,0.298054,0.016919,-0.062055,0.266370
961,231254279,0.932743,0.202000,0.019967,0.297974,-0.030598,-0.047648,0.256943
962,231270946,0.932755,0.202042,0.020000,0.297904,-0.024551,-0.022153,0.257206
963,231287613,0.932756,0.202110,0.020021,0.297854,0.015931,-0.022102,0.197367
964,231304280,0.932742,0.202263,0.020055,0.297792,-0.002890,0.002123,0.238667
965,231320947,0.932733,0.202302,0.020026,0.297797,-0.007090,-0.023104,0.274261
966,231337614,0.932725,0.202362,0.020005,0.297780,0.011741,-0.075047,0.259716
967,231354281,0.932708,0.202453,0.020032,0.297772,-0.010278,-0.048451,0.286121
968,231370948,0.932690,0.202534,0.020041,0.297770,-0.034443,-0.020449,0.246107
969,231387615,0.932687,0.202563,0.019945,0.297767,-0.024377,-0.045319,0.258904
970,231404282,0.932655,0.202644,0.019917,0.297814,-0.021415,-0.031017,0.273419
971,231420949,0.932646,0.202702,0.019819,0.297810,-0.031860,-0.057146,0.241333
972,231437616,0.932644,0.202776,0.019736,0.297769,-0.045662,-0.036824,0.216859
973,231454283,0.932666,0.202705,0.019707,0.297752,0.045252,-0.019281,0.321940
974,231470950,0.932684,0.202644,0.019747,0.297734,0.023574,-0.036231,0.261261
975,231487617,0.932702,0.202597,0.019815,0.297707,-0.020404,-0.023160,0.285178
976,231504284,0.932722,0.202529,0.019852,0.297687,-0.047094,-0.008816,0.235733
977,231520951,0.932731,0.202502,0.019908,0.297672,-0.045243,-0.041643,0.223869
978,231537618,0.932743,0.202544,0.019969,0.297603,0.010261,-0.046548,0.256167
979,231554285,0.932766,0.202595,0.020111,0.297486,0.063936,-0.029663,0.268155
980,231570952,0.932789,0.202667,0.020275,0.297354,0.052423,-0.052036,0.222266
981,231587619,0.932762,0.202849,0.020450,0.297304,0.008650,-0.064637,0.219626
982,231604286,0.932736,0.203018,0.020595,0.297259,-0.008368,-0.047332,0.228406
983,231620953,0.932688,0.203228,0.020792,0.297253,-0.035424,-0.056398,0.233053
984,231637620,0.932643,0.203475,0.020966,0.297212,-0.037322,-0.053327,0.260468
985,231654287,0.932616,0.203659,0.021148,0.297159,0.024210,-0.017526,0.302767
986,231670954,0.932608,0.203750,0.021321,0.297109,0.003699,-0.050442,0.326838
987,231687621,0.932592,0.203796,0.021512,0.297113,-0.050163,-0.043332,0.280125
988,231704288,0.932579,0.203783,0.021623,0.297155,-0.077178,-0.030417,0.241489
989,231720955,0.932571,0.203796,0.021702,0.297168,-0.042439,0.021157,0.221457
990,231737622,0.932580,0.203758,0.021727,0.297163,-0.050889,0.029242,0.244647
991,231754289,0.932601,0.203611,0.021689,0.297201,-0.050232,0.016828,0.248528
992,231770956,0.932654,0.203332,0.021461,0.297242,-0.001586,-0.051970,0.242163
993,231787623,0.932689,0.203162,0.021281,0.297262,0.031874,-0.083052,0.272693
994,231804290,0.932716,0.203032,0.021135,0.297274,0.050290,-0.089068,0.272915
995,231820957,0.932734,0.202968,0.021042,0.297267,0.027462,-0.107588,0.230002
996,231837624,0.932716,0.203121,0.021075,0.297217,0.006100,-0.039515,0.199663
997,231854291,0.932687,0.203304,0.021074,0.297185,-0.004456,0.010137,0.218526
998,231870958,0.932642,0.203536,0.021031,0.297170,-0.026281,0.016981,0.193480
999,231887625,0.932589,0.203739,0.020910,0.297206,-0.040952,0.010119,0.267733
1000,231904292,0.932536,0.203893,0.020725,0.297280,-0.029405,-0.041904,0.219409
1001,231920959,0.932477,0.204062,0.020614,0.297355,-0.024734,-0.048354,0.278654
1002,231937626,0.932443,0.204158,0.020523,0.297402,-0.018913,-0.041197,0.280710
1003,231954293,0.932422,0.204218,0.020531,0.297429,-0.033528,-0.024379,0.290565
1004,231970960,0.932425,0.204095,0.020408,0.297509,-0.072508,-0.036462,0.262650
1005,231987627,0.932429,0.203966,0.020229,0.297599,-0.004065,-0.082825,0.255696
1006,232004294,0.932437,0.203884,0.020060,0.297640,-0.013355,-0.083279,0.299049
1007,232020961,0.932451,0.203883,0.019934,0.297608,0.040187,-0.071828,0.248434
1008,232037628,0.932452,0.203951,0.019847,0.297561,-0.000591,-0.063097,0.267263
1009,232054295,0.932455,0.204026,0.019753,0.297509,0.010189,-0.059366,0.257614
1010,232070962,0.932444,0.204119,0.019666,0.297486,0.043902,0.012031,0.193972
1011,232087629,0.932433,0.204211,0.019577,0.297461,-0.012245,-0.015262,0.238050
1012,232104296,0.932398,0.204354,0.019499,0.297477,-0.019023,-0.012661,0.238652
1013,232120963,0.932365,0.204478,0.019513,0.297497,-0.052173,-0.014407,0.276256
1014,232137630,0.932355,0.204489,0.019457,0.297522,-0.006033,0.002379,0.244525
1015,232154297,0.932330,0.204580,0.019438,0.297540,-0.007382,-0.025614,0.218597
1016,232170964,0.932297,0.204657,0.019356,0.297596,-0.019441,-0.035071,0.255694
1017,232187631,0.932262,0.204766,0.019288,0.297634,-0.011324,-0.058080,0.246844
1018,232204298,0.932210,0.204930,0.019225,0.297690,-0.027611,-0.060081,0.278076
1019,232220965,0.932183,0.205022,0.019163,0.297715,-0.027056,-0.058975,0.293443
1020,232237632,0.932174,0.205093,0.019118,0.297696,-0.025036,-0.019304,0.219438
1021,232254299,0.932176,0.205124,0.019062,0.297671,-0.076460,-0.000838,0.197144
1022,232270966,0.932189,0.205056,0.018842,0.297691,-0.040410,-0.017601,0.219906
1023,232287633,0.932204,0.204936,0.018752,0.297735,0.026451,-0.037224,0.291593
1024,232304300,0.932200,0.204815,0.018632,0.297839,0.025277,-0.074396,0.253636
1025,232320967,0.932203,0.204772,0.018552,0.297862,0.061919,-0.091134,0.249201
1026,232337634,0.932189,0.204955,0.018555,0.297779,0.004810,-0.022414,0.236738
1027,232354301,0.932185,0.205103,0.018538,0.297690,-0.018976,-0.042176,0.231688
1028,232370968,0.932166,0.205303,0.018519,0.297616,-0.030733,-0.048038,0.263678
1029,232387635,0.932153,0.205424,0.018454,0.297576,-0.007060,-0.016095,0.275310
1030,232404302,0.932134,0.205532,0.018442,0.297562,0.007505,-0.027706,0.276376
1031,232420969,0.932112,0.205614,0.018442,0.297575,-0.029218,-0.026682,0.319662
1032,232437636,0.932116,0.205504,0.018363,0.297643,-0.059646,-0.010830,0.242263
1033,232454303,0.932129,0.205383,0.018248,0.297693,-0.005378,-0.039009,0.197013
1034,232470970,0.932146,0.205283,0.018100,0.297716,-0.042074,-0.044308,0.258755
1035,232487637,0.932168,0.205176,0.017920,0.297731,-0.019647,-0.040954,0.275825
1036,232504304,0.932208,0.205052,0.017769,0.297702,0.034962,-0.070851,0.308447
1037,232520971,0.932224,0.205015,0.017701,0.297682,-0.009932,-0.029904,0.267537
1038,232537638,0.932233,0.204955,0.017626,0.297700,-0.016221,-0.016979,0.247056
1039,232554305,0.932257,0.204878,0.017584,0.297678,-0.016246,0.000255,0.244171
1040,232570972,0.932291,0.204789,0.017598,0.297633,-0.059766,0.036844,0.253120
1041,232587639,0.932348,0.204538,0.017505,0.297634,-0.041708,-0.006442,0.247614
1042,232604306,0.932390,0.204267,0.017268,0.297701,0.032526,-0.062976,0.236727
1043,232620973,0.932429,0.204043,0.017109,0.297741,0.008839,-0.024180,0.253480
1044,232637640,0.932512,0.203661,0.016894,0.297755,0.069058,-0.084320,0.271325
1045,232654307,0.932560,0.203435,0.016858,0.297762,0.026032,-0.082308,0.258469
1046,232670974,0.932589,0.203299,0.016872,0.297763,0.021766,-0.051213,0.267355
1047,232687641,0.932597,0.203251,0.016973,0.297766,-0.031407,-0.022053,0.254861
1048,232704308,0.932607,0.203199,0.016997,0.297767,-0.048694,0.006168,0.206325
1049,232720975,0.932606,0.203169,0.016976,0.297791,-0.052188,0.010596,0.217883
1050,232737642,0.932612,0.203107,0.016897,0.297820,-0.032287,-0.004672,0.212209
1051,232754309,0.932624,0.202977,0.016789,0.297878,0.026276,-0.046547,0.264851
1052,232770976,0.932635,0.202857,0.016703,0.297930,-0.003081,-0.090809,0.253363
1053,232787643,0.932636,0.202819,0.016643,0.297955,0.002979,-0.090551,0.268030
1054,232804310,0.932640,0.202808,0.016615,0.297953,-0.060252,-0.059229,0.225198
1055,232820977,0.932640,0.202799,0.016612,0.297959,-0.074428,-0.020308,0.263770
1056,232837644,0.932682,0.202585,0.016555,0.297975,-0.056394,0.031013,0.273324
1057,232854311,0.932738,0.202292,0.016452,0.298004,-0.014923,0.002503,0.225180
1058,232870978,0.932793,0.201995,0.016364,0.298040,0.023164,-0.025322,0.232387
1059,232887645,0.932818,0.201861,0.016254,0.298058,-0.004742,-0.092066,0.184023
1060,232904312,0.932817,0.201931,0.016075,0.298024,-0.036333,-0.062582,0.202216
1061,232920979,0.932796,0.202124,0.015856,0.297969,-0.076814,-0.054734,0.247237
1062,232937646,0.932761,0.202346,0.015582,0.297942,-0.073861,-0.013322,0.246682
1063,232954313,0.932734,0.202500,0.015355,0.297936,-0.036903,-0.023339,0.241073
1064,232970980,0.932723,0.202628,0.015162,0.297893,0.005635,-0.020702,0.254068
1065,232987647,0.932721,0.202745,0.015081,0.297823,0.015496,-0.003416,0.272515
1066,233004314,0.932715,0.202849,0.015011,0.297773,0.044248,-0.028755,0.290730
1067,233020981,0.932730,0.202870,0.014916,0.297717,-0.000325,-0.022442,0.265089
1068,233037648,0.932738,0.202920,0.014804,0.297664,0.041293,-0.044325,0.223045
1069,233054315,0.932723,0.203083,0.014820,0.297600,0.008845,-0.031109,0.316163
1070,233070982,0.932710,0.203169,0.014841,0.297582,-0.119383,-0.024889,0.262284
1071,233087649,0.932730,0.203123,0.014717,0.297554,-0.031290,-0.023535,0.262555
1072,233104316,0.932761,0.202972,0.014693,0.297562,0.014137,0.034733,0.246568
1073,233120983,0.932788,0.202814,0.014667,0.297588,0.034070,-0.025921,0.242738
1074,233137650,0.932799,0.202725,0.014667,0.297614,0.011373,-0.006279,0.258080
1075,233154317,0.932825,0.202595,0.014701,0.297617,-0.003680,0.013246,0.265223
1076,233170984,0.932870,0.202438,0.014784,0.297579,-0.052105,-0.054688,0.245843
1077,233187651,0.932923,0.202369,0.014838,0.297458,-0.039838,-0.062118,0.244871
1078,233204318,0.932975,0.202326,0.014950,0.297318,0.005169,-0.042635,0.224576
1079,233220985,0.933001,0.202285,0.015017,0.297262,-0.037860,-0.022245,0.208904
1080,233237652,0.933014,0.202305,0.015081,0.297203,0.000387,-0.047978,0.225719
1081,233254319,0.933036,0.202345,0.015173,0.297104,0.036955,-0.024890,0.223237
1082,233270986,0.933041,0.202472,0.015299,0.296994,0.030068,-0.044649,0.246711
1083,233287653,0.933031,0.202609,0.015415,0.296927,0.010143,-0.052353,0.268572
1084,233304320,0.933037,0.202784,0.015549,0.296780,-0.000489,-0.077533,0.264910
1085,233320987,0.933044,0.202926,0.015694,0.296654,-0.039890,-0.049496,0.271900
1086,233337654,0.933055,0.203015,0.015821,0.296551,-0.031911,-0.033539,0.291917
1087,233354321,0.933050,0.203101,0.015952,0.296501,-0.022820,-0.026753,0.302048
1088,233370988,0.933042,0.203198,0.016070,0.296454,-0.030260,0.031254,0.275486
1089,233387655,0.933033,0.203226,0.016166,0.296458,-0.028191,0.069201,0.300010
1090,233404322,0.933035,0.203079,0.016178,0.296553,-0.034216,0.026664,0.257236
1091,233420989,0.933038,0.202888,0.016184,0.296671,0.039887,-0.003353,0.227572
1092,233437656,0.933042,0.202691,0.016145,0.296797,-0.028947,-0.054508,0.253582
1093,233454323,0.933029,0.202534,0.016098,0.296947,-0.062446,-0.080872,0.247069
1094,233470990,0.933029,0.202430,0.016033,0.297023,-0.024481,-0.098752,0.292397
1095,233487657,0.933042,0.202370,0.016040,0.297023,-0.074999,-0.004928,0.229392
1096,233504324,0.933035,0.202330,0.016035,0.297071,-0.045133,-0.020365,0.206102
1097,233520991,0.933010,0.202346,0.016044,0.297137,-0.019811,0.011143,0.202365
1098,233537658,0.933002,0.202303,0.016025,0.297193,0.003149,-0.022412,0.244226
1099,233554325,0.933007,0.202219,0.016013,0.297236,-0.019273,-0.109357,0.272200
1100,233570992,0.933044,0.202065,0.016074,0.297221,0.013355,-0.081470,0.318053
1101,233587659,0.933126,0.201805,0.016262,0.297131,0.008813,-0.030949,0.323049
1102,233604326,0.933208,0.201503,0.016480,0.297067,-0.017067,-0.000290,0.239604
1103,233620993,0.933254,0.201305,0.016627,0.297046,0.018800,0.019102,0.190930
1104,233637660,0.933278,0.201146,0.016722,0.297074,-0.014672,0.015559,0.221385
1105,233654327,0.933282,0.201014,0.016769,0.297147,-0.000651,-0.042942,0.253166
1106,233670994,0.933284,0.200949,0.016840,0.297181,0.016612,-0.065425,0.287935
1107,233687661,0.933303,0.200896,0.016971,0.297151,-0.005593,-0.025788,0.250993
1108,233704328,0.933328,0.200753,0.017082,0.297161,0.013937,-0.033385,0.208575
1109,233720995,0.933350,0.200661,0.017230,0.297145,-0.045791,-0.015957,0.199168
1110,233737662,0.933349,0.200619,0.017308,0.297175,-0.007588,-0.038868,0.237667
1111,233754329,0.933321,0.200597,0.017460,0.297268,-0.018028,-0.029758,0.323762
1112,233770996,0.933309,0.200523,0.017623,0.297346,-0.028717,-0.055037,0.249281
1113,233787663,0.933275,0.200581,0.017737,0.297405,-0.042965,-0.065016,0.230532
1114,233804330,0.933248,0.200651,0.017797,0.297441,-0.052384,0.007456,0.213891
1115,233820997,0.933219,0.200748,0.017764,0.297467,-0.054533,-0.001100,0.257658
1116,233837664,0.933199,0.200849,0.017772,0.297461,-0.040953,-0.021814,0.288087
1117,233854331,0.933176,0.200904,0.017763,0.297498,-0.014531,-0.012630,0.282376
1118,233870998,0.933131,0.201086,0.017828,0.297513,-0.050241,-0.031160,0.227997
1119,233887665,0.933092,0.201268,0.017774,0.297514,-0.088929,-0.079059,0.244081
1120,233904332,0.933096,0.201272,0.017802,0.297498,0.027276,-0.028298,0.352034
1121,233920999,0.933094,0.201262,0.017848,0.297508,-0.000302,-0.059416,0.257610
1122,233937666,0.933089,0.201329,0.017940,0.297471,0.036109,-0.036099,0.264254
1123,233954333,0.933094,0.201435,0.018049,0.297377,0.027893,0.045420,0.224678
1124,233971000,0.933072,0.201564,0.018117,0.297357,-0.035639,0.006657,0.220592
1125,233987667,0.933031,0.201743,0.018098,0.297366,-0.015930,-0.028027,0.275928
1126,234004334,0.932993,0.201876,0.018122,0.297390,-0.053569,-0.020813,0.333577
1127,234021001,0.932994,0.201863,0.018097,0.297398,-0.050630,-0.014098,0.285653
1128,234037668,0.932989,0.201820,0.018090,0.297444,-0.005405,-0.004752,0.213219
1129,234054335,0.932987,0.201730,0.018117,0.297509,0.011922,-0.043054,0.217593
1130,234071002,0.932972,0.201696,0.018097,0.297582,0.051461,-0.098665,0.223354
1131,234087669,0.932944,0.201760,0.018125,0.297624,0.010085,-0.098444,0.249136
1132,234104336,0.932936,0.201839,0.018182,0.297591,0.013286,-0.108188,0.275303
1133,234121003,0.932937,0.201948,0.018271,0.297509,-0.040133,-0.017096,0.254508
1134,234137670,0.932931,0.202075,0.018361,0.297436,-0.044901,0.016224,0.247568
1135,234154337,0.932911,0.202193,0.018400,0.297415,-0.043745,-0.017012,0.223591
1136,234171004,0.932902,0.202285,0.018445,0.297378,-0.022333,-0.003256,0.243223
1137,234187671,0.932885,0.202349,0.018497,0.297386,-0.038039,0.000837,0.250879
1138,234204338,0.932873,0.202377,0.018487,0.297406,-0.031030,-0.051762,0.280753
1139,234221005,0.932858,0.202324,0.018417,0.297492,0.030232,-0.055620,0.266274
1140,234237672,0.932842,0.202343,0.018426,0.297530,-0.008319,-0.041750,0.257871
1141,234254339,0.932827,0.202374,0.018416,0.297556,-0.024371,-0.074600,0.249549
1142,234271006,0.932820,0.202441,0.018442,0.297532,-0.024891,-0.005761,0.299591
1143,234287673,0.932824,0.202427,0.018442,0.297528,-0.018553,-0.025974,0.278528
1144,234304340,0.932803,0.202478,0.018463,0.297558,-0.014390,-0.046043,0.257700
1145,234321007,0.932784,0.202551,0.018506,0.297564,0.025642,0.003494,0.270934
1146,234337674,0.932780,0.202469,0.018482,0.297636,-0.018484,-0.006686,0.250404
1147,234354341,0.932762,0.202463,0.018458,0.297696,-0.044081,-0.056459,0.178720
1148,234371008,0.932752,0.202501,0.018407,0.297706,-0.055058,0.013423,0.258367
1149,234387675,0.932768,0.202432,0.018340,0.297707,-0.013547,-0.004951,0.266096
1150,234404342,0.932767,0.202414,0.018313,0.297724,0.020750,-0.030662,0.225759
1151,234421009,0.932764,0.202435,0.018325,0.297718,0.017080,-0.007724,0.281533
1152,234437676,0.932745,0.202473,0.018343,0.297750,0.013593,-0.017450,0.239200
1153,234454343,0.932715,0.202605,0.018395,0.297750,-0.011887,-0.040137,0.240955
1154,234471010,0.932680,0.202780,0.018444,0.297739,-0.050160,-0.046240,0.250901
1155,234487677,0.932680,0.202821,0.018388,0.297715,-0.042997,-0.051663,0.267669
1156,234504344,0.932693,0.202744,0.018326,0.297728,-0.029095,-0.022136,0.255042
1157,234521011,0.932698,0.202737,0.018283,0.297719,0.029965,-0.057412,0.207526
1158,234537678,0.932681,0.202770,0.018312,0.297749,-0.003968,-0.032637,0.280496
1159,234554345,0.932675,0.202776,0.018354,0.297761,0.010048,-0.047020,0.281810
1160,234571012,0.932673,0.202804,0.018470,0.297742,-0.032782,-0.036266,0.277351
1161,234587679,0.932669,0.202868,0.018579,0.297706,-0.010283,-0.018408,0.259042
1162,234604346,0.932648,0.202965,0.018675,0.297698,-0.019775,0.002297,0.202175
1163,234621013,0.932609,0.203169,0.018735,0.297679,-0.018399,-0.036781,0.250131
1164,234637680,0.932566,0.203419,0.018796,0.297637,0.007097,-0.006288,0.214877
1165,234654347,0.932510,0.203714,0.018776,0.297613,-0.088209,-0.068090,0.233560
1166,234671014,0.932474,0.203867,0.018743,0.297623,-0.012903,0.001792,0.299872
1167,234687681,0.932464,0.203868,0.018714,0.297656,0.023183,-0.049183,0.281030
1168,234704348,0.932442,0.203943,0.018791,0.297668,0.024778,-0.061136,0.258120
1169,234721015,0.932410,0.204070,0.018842,0.297677,0.020742,-0.034446,0.244850
1170,234737682,0.932378,0.204275,0.018952,0.297630,-0.022137,-0.007930,0.264654
1171,234754349,0.932349,0.204523,0.018984,0.297549,-0.058269,-0.029135,0.249684
1172,234771016,0.932316,0.204780,0.019002,0.297476,-0.023875,0.022676,0.276608
1173,234787683,0.932294,0.204894,0.018964,0.297466,-0.014485,-0.007615,0.258260
1174,234804350,0.932274,0.204980,0.018931,0.297472,-0.022944,-0.023601,0.277887
1175,234821017,0.932260,0.204967,0.018951,0.297524,-0.019820,-0.018046,0.285694
1176,234837684,0.932262,0.204849,0.018951,0.297601,0.006772,-0.010078,0.235825
1177,234854351,0.932273,0.204722,0.018988,0.297649,-0.028484,-0.009894,0.271632
1178,234871018,0.932294,0.204568,0.019000,0.297689,-0.024885,-0.014673,0.265993
1179,234887685,0.932322,0.204399,0.019018,0.297716,0.022305,-0.050948,0.311748
1180,234904352,0.932381,0.204100,0.018870,0.297745,-0.032735,-0.050237,0.291175
1181,234921019,0.932462,0.203705,0.018709,0.297772,-0.047657,-0.072498,0.244262
1182,234937686,0.932547,0.203396,0.018638,0.297722,-0.019891,-0.051086,0.215241
1183,234954353,0.932616,0.203198,0.018675,0.297639,0.011686,-0.003997,0.200254
1184,234971020,0.932667,0.203005,0.018709,0.297610,0.032275,0.007618,0.297669
1185,234987687,0.932714,0.202743,0.018732,0.297639,0.092189,-0.102432,0.280306
1186,235004354,0.932706,0.202649,0.018800,0.297723,0.029412,-0.108984,0.254175
1187,235021021,0.932693,0.202631,0.018874,0.297772,-0.016005,-0.087964,0.226106
1188,235037688,0.932664,0.202743,0.018973,0.297780,-0.066254,-0.047133,0.239500
1189,235054355,0.932640,0.202903,0.019082,0.297739,-0.018027,0.034071,0.260325
1190,235071022,0.932623,0.202975,0.019220,0.297734,-0.035416,0.048144,0.268333
1191,235087689,0.932612,0.203003,0.019292,0.297745,-0.016734,0.021894,0.231350
1192,235104356,0.932588,0.202989,0.019296,0.297831,-0.013430,0.031986,0.241297
1193,235121023,0.932567,0.203004,0.019350,0.297883,-0.057599,-0.038837,0.239753
1194,235137690,0.932545,0.203036,0.019365,0.297927,-0.081074,-0.014991,0.230532
1195,235154357,0.932552,0.203054,0.019367,0.297893,-0.033822,-0.042920,0.254443
1196,235171024,0.932547,0.203100,0.019399,0.297876,-0.003156,-0.102546,0.295387
1197,235187691,0.932550,0.203143,0.019492,0.297831,0.012961,-0.026071,0.283911
1198,235204358,0.932556,0.203086,0.019608,0.297844,-0.009204,-0.031128,0.282080
1199,235221025,0.932543,0.203071,0.019736,0.297888,-0.018089,-0.038020,0.219254
1200,235237692,0.932541,0.203063,0.019823,0.297893,-0.022682,-0.017381,0.211108
1201,235254359,0.932547,0.203048,0.019841,0.297884,-0.022181,-0.080874,0.268405
1202,235271026,0.932546,0.203083,0.019874,0.297859,0.020637,-0.051703,0.284073
1203,235287693,0.932551,0.203059,0.019892,0.297859,-0.001990,-0.030813,0.275514
1204,235304360,0.932533,0.203064,0.019916,0.297912,-0.015105,-0.033530,0.250319
1205,235321027,0.932499,0.203110,0.019954,0.297983,-0.067293,0.003815,0.254267
1206,235337694,0.932491,0.203073,0.019949,0.298033,-0.012734,0.013461,0.202740
1207,235354361,0.932488,0.203017,0.019967,0.298080,0.001722,-0.033919,0.251048
1208,235371028,0.932488,0.202995,0.019945,0.298095,0.024314,-0.064300,0.232931
1209,235387695,0.932493,0.202968,0.019911,0.298100,0.005980,-0.090045,0.281269
1210,235404362,0.932501,0.202988,0.019875,0.298065,0.034547,-0.096395,0.242206
1211,235421029,0.932459,0.203268,0.019947,0.298002,-0.076321,-0.082820,0.232602
1212,235437696,0.932422,0.203462,0.019834,0.297991,-0.069498,-0.024386,0.282724
1213,235454363,0.932406,0.203530,0.019852,0.297994,-0.022625,0.044541,0.275525
1214,235471030,0.932422,0.203479,0.019824,0.297981,0.012115,0.042751,0.223986
1215,235487697,0.932448,0.203370,0.019802,0.297975,0.034476,0.072501,0.264745
1216,235504364,0.932471,0.203268,0.019817,0.297972,0.031904,0.022988,0.282290
1217,235521031,0.932491,0.203214,0.019888,0.297943,-0.006120,-0.066637,0.239808
1218,235537698,0.932493,0.203269,0.019923,0.297895,-0.042504,-0.070210,0.249070
1219,235554365,0.932493,0.203283,0.019931,0.297884,-0.092277,-0.008808,0.283689
1220,235571032,0.932499,0.203206,0.019852,0.297925,-0.013905,-0.025152,0.190953
1221,235587699,0.932492,0.203142,0.019826,0.297991,-0.017075,-0.006911,0.176695
1222,235604366,0.932482,0.203072,0.019701,0.298078,0.020842,-0.047654,0.198178
1223,235621033,0.932473,0.203076,0.019581,0.298111,-0.001741,-0.051429,0.275164
1224,235637700,0.932480,0.203085,0.019551,0.298088,-0.014398,-0.019654,0.277314
1225,235654367,0.932502,0.203003,0.019492,0.298076,-0.035339,-0.032509,0.247531
1226,235671034,0.932521,0.202975,0.019416,0.298042,-0.012101,-0.030681,0.268135
1227,235687701,0.932554,0.202803,0.019296,0.298065,-0.034825,-0.011253,0.299431
1228,235704368,0.932588,0.202628,0.019132,0.298085,-0.044693,-0.051436,0.263632
1229,235721035,0.932609,0.202561,0.019001,0.298074,-0.043040,-0.011980,0.254510
1230,235737702,0.932648,0.202437,0.018847,0.298049,-0.016193,0.004403,0.248378
1231,235754369,0.932684,0.202252,0.018735,0.298067,-0.018513,-0.007822,0.245518
1232,235771036,0.932730,0.202029,0.018574,0.298085,0.081778,-0.070935,0.284438
1233,235787703,0.932747,0.201937,0.018572,0.298094,0.034360,-0.092671,0.272511
1234,235804370,0.932765,0.201863,0.018657,0.298082,-0.014695,-0.037829,0.255569
1235,235821037,0.932803,0.201690,0.018678,0.298079,-0.025624,-0.034177,0.274172
1236,235837704,0.932820,0.201601,0.018760,0.298080,-0.019084,0.006548,0.247728
1237,235854371,0.932828,0.201516,0.018761,0.298115,-0.053487,-0.004116,0.242478
1238,235871038,0.932823,0.201462,0.018743,0.298166,-0.019152,0.023694,0.241405
1239,235887705,0.932809,0.201414,0.018682,0.298245,0.015812,0.008466,0.226182
1240,235904372,0.932795,0.201388,0.018604,0.298312,0.004156,-0.056562,0.227216
1241,235921039,0.932777,0.201437,0.018553,0.298341,-0.010206,-0.079416,0.256263
1242,235937706,0.932779,0.201455,0.018566,0.298319,0.001627,-0.006268,0.300552
1243,235954373,0.932788,0.201421,0.018614,0.298311,-0.048929,-0.020059,0.251237
1244,235971040,0.932800,0.201392,0.018619,0.298294,-0.021671,-0.023272,0.236097
1245,235987707,0.932795,0.201400,0.018611,0.298305,-0.044975,-0.000425,0.239573
1246,236004374,0.932794,0.201359,0.018598,0.298335,0.011311,-0.057018,0.259329
1247,236021041,0.932800,0.201375,0.018697,0.298301,0.004971,-0.085100,0.258354
1248,236037708,0.932817,0.201344,0.018866,0.298259,-0.018148,-0.092864,0.255778
1249,236054375,0.932829,0.201371,0.019091,0.298187,-0.023618,-0.048906,0.255245
1250,236071042,0.932828,0.201405,0.019281,0.298156,-0.066038,-0.022409,0.316627
1251,236087709,0.932843,0.201361,0.019470,0.298126,-0.031552,0.028478,0.263271
1252,236104376,0.932867,0.201255,0.019542,0.298117,-0.027136,0.022970,0.276268
1253,236121043,0.932908,0.201081,0.019555,0.298107,0.012769,0.040331,0.231070
1254,236137710,0.932935,0.200894,0.019520,0.298150,0.024230,-0.010128,0.236648
1255,236154377,0.932943,0.200825,0.019523,0.298170,0.048363,-0.079255,0.262512
1256,236171044,0.932929,0.200879,0.019528,0.298179,0.033250,-0.078857,0.264102
1257,236187711,0.932892,0.201059,0.019634,0.298164,0.011038,-0.044460,0.257377
1258,236204378,0.932838,0.201251,0.019745,0.298197,-0.105777,-0.007121,0.214798
1259,236221045,0.932809,0.201323,0.019671,0.298245,-0.018863,-0.045831,0.281738
1260,236237712,0.932771,0.201349,0.019739,0.298341,0.004284,-0.038497,0.261408
1261,236254379,0.932723,0.201430,0.019848,0.298430,0.016911,-0.086312,0.280631
1262,236271046,0.932684,0.201538,0.019991,0.298470,0.052836,-0.004507,0.253736
1263,236287713,0.932649,0.201640,0.020152,0.298498,-0.013110,0.016035,0.263332
1264,236304380,0.932612,0.201786,0.020288,0.298505,-0.106503,0.026114,0.246041
1265,236321047,0.932580,0.201885,0.020380,0.298534,-0.050668,0.063703,0.227230
1266,236337714,0.932572,0.201859,0.020440,0.298572,-0.050358,0.019470,0.295695
1267,236354381,0.932570,0.201761,0.020481,0.298640,0.053290,-0.069776,0.348617
1268,236371048,0.932568,0.201754,0.020666,0.298639,0.051620,-0.049237,0.303452
1269,236387715,0.932561,0.201702,0.020876,0.298683,0.018599,-0.063223,0.288926
1270,236404382,0.932541,0.201693,0.021159,0.298730,-0.043065,0.010035,0.271997
1271,236421049,0.932533,0.201575,0.021370,0.298818,-0.049589,0.034544,0.194544
1272,236437716,0.932527,0.201512,0.021582,0.298867,-0.059596,0.007565,0.218681
1273,236454383,0.932517,0.201478,0.021712,0.298911,0.002772,-0.025016,0.233561
1274,236471050,0.932504,0.201470,0.021907,0.298942,-0.017832,-0.039915,0.286133
1275,236487717,0.932483,0.201489,0.022028,0.298985,0.001507,-0.078739,0.222322
1276,236504384,0.932452,0.201593,0.022162,0.299004,-0.028491,-0.031896,0.209896
1277,236521051,0.932444,0.201648,0.022261,0.298982,-0.047419,-0.039729,0.268876
1278,236537718,0.932456,0.201600,0.022336,0.298973,-0.064811,-0.069407,0.286563
1279,236554385,0.932479,0.201499,0.022380,0.298965,0.051016,-0.028370,0.262236
1280,236571052,0.932486,0.201387,0.022461,0.299012,0.019194,-0.046838,0.243413
1281,236587719,0.932484,0.201333,0.022593,0.299045,-0.021499,-0.009808,0.244306
1282,236604386,0.932478,0.201284,0.022669,0.299092,0.017211,-0.025246,0.270517
1283,236621053,0.932470,0.201278,0.022744,0.299114,-0.033699,-0.030498,0.274143
1284,236637720,0.932475,0.201253,0.022841,0.299109,-0.043487,-0.002215,0.273277
1285,236654387,0.932478,0.201158,0.022854,0.299162,-0.061730,0.020082,0.219440
1286,236671054,0.932484,0.201051,0.022820,0.299219,0.009696,-0.008446,0.201278
1287,236687721,0.932471,0.201008,0.022778,0.299290,-0.030349,-0.060864,0.242890
1288,236704388,0.932459,0.200961,0.022712,0.299365,-0.022916,-0.057041,0.271093
1289,236721055,0.932443,0.200962,0.022693,0.299415,0.023384,-0.069614,0.269792
1290,236737722,0.932433,0.201017,0.022720,0.299407,0.004446,-0.022326,0.295525
1291,236754389,0.932428,0.201028,0.022769,0.299412,-0.016736,0.037453,0.282462
1292,236771056,0.932426,0.200993,0.022761,0.299442,-0.055984,0.014369,0.209675
1293,236787723,0.932420,0.200916,0.022696,0.299517,-0.043535,-0.002497,0.231852
1294,236804390,0.932412,0.200858,0.022630,0.299587,-0.036334,-0.068088,0.226378
1295,236821057,0.932401,0.200834,0.022551,0.299643,0.026439,-0.111127,0.297510
1296,236837724,0.932381,0.200938,0.022621,0.299630,0.057531,-0.078109,0.287004
1297,236854391,0.932360,0.201017,0.022672,0.299639,0.054128,-0.080011,0.229579
1298,236871058,0.932293,0.201311,0.022704,0.299647,0.046324,-0.062858,0.235415
1299,236887725,0.932213,0.201671,0.022757,0.299651,0.051360,0.000718,0.237679
1300,236904392,0.932144,0.201926,0.022816,0.299688,-0.053583,0.003407,0.282377
1301,236921059,0.932075,0.202151,0.022866,0.299749,0.008942,0.002624,0.272791
1302,236937726,0.932024,0.202270,0.022962,0.299818,-0.013379,0.027459,0.334754
1303,236954393,0.931971,0.202391,0.023072,0.299893,-0.027430,-0.028545,0.213123
1304,236971060,0.931924,0.202483,0.023005,0.299983,-0.043406,-0.103452,0.258337
1305,236987727,0.931865,0.202603,0.023112,0.300077,-0.045641,-0.070588,0.266747
1306,237004394,0.931822,0.202722,0.023171,0.300125,-0.028149,-0.076428,0.226360
1307,237021061,0.931799,0.202858,0.023244,0.300099,-0.014137,-0.015952,0.259836
1308,237037728,0.931802,0.202950,0.023401,0.300016,0.011769,0.035819,0.292588
1309,237054395,0.931832,0.202948,0.023559,0.299911,-0.030505,-0.008671,0.265965
1310,237071062,0.931838,0.203045,0.023665,0.299816,-0.050772,0.016582,0.243536
1311,237087729,0.931845,0.203077,0.023785,0.299764,-0.079309,0.047982,0.231201
1312,237104396,0.931862,0.203050,0.023782,0.299730,-0.050112,-0.020960,0.202565
1313,237121063,0.931859,0.203094,0.023860,0.299702,-0.012301,-0.043905,0.257819
1314,237137730,0.931855,0.203116,0.023870,0.299700,0.016667,-0.074339,0.282849
1315,237154397,0.931812,0.203292,0.023997,0.299706,-0.023082,-0.066212,0.294845
1316,237171064,0.931785,0.203357,0.024056,0.299741,-0.008515,-0.035233,0.259274
1317,237187731,0.931754,0.203443,0.024182,0.299768,-0.005907,-0.051105,0.249918
1318,237204398,0.931723,0.203563,0.024314,0.299771,0.000024,-0.028918,0.292160
1319,237221065,0.931722,0.203554,0.024376,0.299777,0.030110,0.001147,0.269741
1320,237237732,0.931711,0.203576,0.024456,0.299788,-0.021453,0.026894,0.231619
1321,237254399,0.931699,0.203596,0.024418,0.299815,-0.024811,0.029727,0.187605
1322,237271066,0.931666,0.203692,0.024377,0.299855,-0.019047,0.012295,0.227498
1323,237287733,0.931639,0.203698,0.024226,0.299949,-0.091636,-0.050913,0.279761
1324,237304400,0.931611,0.203712,0.024062,0.300038,0.031211,-0.102249,0.291062
1325,237321067,0.931598,0.203715,0.024013,0.300080,0.016181,-0.077838,0.289113
1326,237337734,0.931590,0.203754,0.024083,0.300073,-0.027686,-0.069847,0.276360
1327,237354401,0.931579,0.203812,0.024121,0.300065,0.001482,-0.011330,0.212141
1328,237371068,0.931566,0.203875,0.024175,0.300058,-0.024677,0.014876,0.230688
1329,237387735,0.931548,0.203889,0.024132,0.300110,-0.023682,-0.058841,0.210074
1330,237404402,0.931519,0.203979,0.024099,0.300140,-0.009647,-0.021365,0.274467
1331,237421069,0.931504,0.204021,0.024058,0.300163,0.012669,-0.046191,0.309788
1332,237437736,0.931535,0.203850,0.023970,0.300188,-0.042365,-0.069797,0.282830
1333,237454403,0.931583,0.203638,0.023764,0.300199,-0.009650,-0.062715,0.242015
1334,237471070,0.931652,0.203314,0.023553,0.300221,-0.017696,0.018712,0.253551
1335,237487737,0.931715,0.202947,0.023396,0.300286,0.002306,-0.010341,0.209422
1336,237504404,0.931755,0.202714,0.023373,0.300323,0.011569,0.007067,0.281251
1337,237521071,0.931776,0.202535,0.023387,0.300376,-0.018128,0.004567,0.235095
1338,237537738,0.931800,0.202359,0.023368,0.300424,-0.033919,-0.003751,0.227893
1339,237554405,0.931819,0.202206,0.023331,0.300470,-0.041463,-0.021956,0.224819
1340,237571072,0.931816,0.202148,0.023271,0.300523,-0.031170,-0.049725,0.234312
1341,237587739,0.931815,0.202087,0.023228,0.300569,-0.016339,-0.024196,0.326439
1342,237604406,0.931833,0.201953,0.023271,0.300600,-0.020940,-0.019743,0.248470
1343,237621073,0.931841,0.201869,0.023322,0.300629,0.014118,-0.038625,0.225942
1344,237637740,0.931835,0.201875,0.023446,0.300635,-0.021657,-0.019535,0.294683
1345,237654407,0.931847,0.201804,0.023498,0.300641,-0.024394,-0.025245,0.251252
1346,237671074,0.931857,0.201754,0.023520,0.300642,0.018018,-0.030959,0.267447
1347,237687741,0.931851,0.201806,0.023577,0.300620,0.035213,-0.026167,0.249567
1348,237704408,0.931840,0.201876,0.023597,0.300605,-0.093562,-0.028229,0.253543
1349,237721075,0.931843,0.201837,0.023528,0.300629,0.029216,0.006043,0.298802
1350,237737742,0.931854,0.201713,0.023612,0.300670,0.018145,-0.001814,0.265203
1351,237754409,0.931862,0.201609,0.023704,0.300707,0.026249,-0.037394,0.262950
1352,237771076,0.931860,0.201558,0.023791,0.300740,-0.001937,0.011735,0.273920
1353,237787743,0.931883,0.201415,0.023834,0.300764,-0.005537,-0.002266,0.271265
1354,237804410,0.931903,0.201333,0.023869,0.300753,-0.067667,-0.054509,0.265838
1355,237821077,0.931923,0.201225,0.023907,0.300759,0.000031,0.016513,0.255976
1356,237837744,0.931945,0.201033,0.023947,0.300817,-0.007059,-0.028815,0.274558
1357,237854411,0.931958,0.200879,0.023985,0.300875,-0.003231,-0.045705,0.235962
1358,237871078,0.931962,0.200751,0.024040,0.300944,-0.014153,-0.028681,0.214454
1359,237887745,0.931971,0.200642,0.024024,0.300990,-0.029327,0.002513,0.222585
1360,237904412,0.931985,0.200557,0.023981,0.301007,-0.005037,-0.027686,0.242322
1361,237921079,0.932002,0.200479,0.023930,0.301011,-0.000552,-0.030189,0.312328
1362,237937746,0.932028,0.200379,0.023911,0.300998,0.007750,-0.019080,0.300743
1363,237954413,0.932047,0.200303,0.023922,0.300990,0.005504,-0.054219,0.253856
1364,237971080,0.932048,0.200288,0.023975,0.300994,0.020770,-0.031919,0.241096
1365,237987747,0.932046,0.200250,0.023984,0.301022,-0.008058,-0.007424,0.254286
1366,238004414,0.932039,0.200198,0.023980,0.301080,-0.037656,-0.043341,0.242995
1367,238021081,0.932031,0.200200,0.023979,0.301103,-0.012620,-0.008764,0.244823
1368,238037748,0.932018,0.200185,0.023954,0.301156,-0.020829,-0.105869,0.249915
1369,238054415,0.932002,0.200216,0.023982,0.301182,0.092397,-0.038744,0.236178
1370,238071082,0.931982,0.200227,0.024070,0.301229,-0.012645,-0.063713,0.274883
1371,238087749,0.931973,0.200253,0.024183,0.301232,-0.032767,0.001242,0.279886
1372,238104416,0.931980,0.200227,0.024365,0.301212,-0.022494,0.040881,0.286337
1373,238121083,0.931985,0.200175,0.024465,0.301222,-0.027114,0.057166,0.299162
1374,238137750,0.931985,0.200115,0.024545,0.301256,-0.005039,0.037097,0.223442
1375,238154417,0.931974,0.200083,0.024563,0.301310,-0.020329,0.011639,0.260736
1376,238171084,0.931969,0.200046,0.024522,0.301353,-0.039258,-0.006764,0.237309
1377,238187751,0.931974,0.199976,0.024460,0.301391,-0.003368,-0.063328,0.243013
1378,238204418,0.931979,0.199894,0.024464,0.301429,0.021333,-0.069464,0.240831
1379,238221085,0.931968,0.199927,0.024495,0.301439,-0.012618,-0.100034,0.223388
1380,238237752,0.931950,0.200080,0.024545,0.301389,-0.002609,-0.042615,0.206065
1381,238254419,0.931938,0.200240,0.024593,0.301316,-0.030264,-0.019802,0.262841
1382,238271086,0.931942,0.200329,0.024685,0.301236,-0.032952,-0.026806,0.286537
1383,238287753,0.931940,0.200421,0.024781,0.301172,-0.003802,-0.007901,0.251133
1384,238304420,0.931933,0.200473,0.024837,0.301156,-0.003327,0.009545,0.250875
1385,238321087,0.931920,0.200506,0.024840,0.301175,-0.007788,-0.025806,0.268248
1386,238337754,0.931904,0.200566,0.024855,0.301183,-0.006605,-0.053718,0.291749
1387,238354421,0.931887,0.200622,0.024911,0.301193,0.015035,-0.003328,0.284323
1388,238371088,0.931861,0.200711,0.024943,0.301210,0.014369,-0.026175,0.220139
1389,238387755,0.931819,0.200903,0.024990,0.301208,-0.017428,0.019982,0.216351
1390,238404422,0.931809,0.200921,0.024966,0.301231,-0.034410,-0.008249,0.260814
1391,238421089,0.931803,0.200914,0.024929,0.301256,-0.029409,-0.038058,0.269855
1392,238437756,0.931806,0.200982,0.024935,0.301202,-0.001436,-0.058096,0.261756
1393,238454423,0.931796,0.201153,0.024949,0.301115,-0.143196,-0.026913,0.204251
1394,238471090,0.931803,0.201184,0.024800,0.301088,0.001165,-0.038778,0.266073
1395,238487757,0.931799,0.201225,0.024799,0.301073,0.032287,-0.070128,0.243120
1396,238504424,0.931767,0.201398,0.024873,0.301050,0.034915,-0.076510,0.259242
1397,238521091,0.931721,0.201662,0.025023,0.301002,0.060527,-0.013702,0.308290
1398,238537758,0.931699,0.201883,0.025216,0.300906,0.037916,0.018099,0.265611
1399,238554425,0.931664,0.202161,0.025396,0.300813,-0.059091,0.000421,0.220770
1400,238571092,0.931639,0.202328,0.025514,0.300769,-0.015750,0.075278,0.276024
1401,238587759,0.931604,0.202411,0.025596,0.300814,-0.016511,0.006709,0.272167
1402,238604426,0.931596,0.202417,0.025653,0.300830,-0.024150,-0.006221,0.252978
1403,238621093,0.931595,0.202340,0.025699,0.300880,-0.024445,-0.034793,0.253866
1404,238637760,0.931573,0.202325,0.025701,0.300957,-0.030719,-0.073807,0.193758
1405,238654427,0.931554,0.202367,0.025673,0.300992,-0.027313,-0.056566,0.212566
1406,238671094,0.931539,0.202414,0.025638,0.301008,-0.032141,-0.060817,0.235534
1407,238687761,0.931535,0.202475,0.025553,0.300986,-0.034535,-0.037905,0.234763
1408,238704428,0.931539,0.202560,0.025491,0.300923,0.011293,-0.044849,0.236559
1409,238721095,0.931542,0.202646,0.025455,0.300859,0.017376,0.006664,0.340444
1410,238737762,0.931562,0.202655,0.025487,0.300790,0.021391,0.018033,0.296558
1411,238754429,0.931587,0.202637,0.025446,0.300727,0.015571,-0.017464,0.211106
1412,238771096,0.931589,0.202735,0.025561,0.300646,-0.019847,0.047740,0.243231
1413,238787763,0.931591,0.202653,0.025469,0.300702,-0.029187,-0.058231,0.285096
1414,238804430,0.931587,0.202662,0.025407,0.300713,0.065446,-0.110044,0.245705
1415,238821097,0.931583,0.202718,0.025465,0.300683,0.031348,-0.076640,0.279537
1416,238837764,0.931579,0.202821,0.025590,0.300616,0.041907,-0.064864,0.279887
1417,238854431,0.931551,0.202990,0.025737,0.300576,-0.036703,0.033513,0.238092
1418,238871098,0.931517,0.203090,0.025821,0.300607,-0.058233,0.019059,0.226340
1419,238887765,0.931478,0.203185,0.025812,0.300665,-0.048869,0.023704,0.225564
1420,238904432,0.931465,0.203201,0.025785,0.300694,-0.054661,0.032293,0.225587
1421,238921099,0.931455,0.203186,0.025717,0.300743,-0.006405,-0.051357,0.250742
1422,238937766,0.931434,0.203196,0.025662,0.300804,-0.026302,-0.061734,0.308264
1423,238954433,0.931429,0.203195,0.025647,0.300822,-0.011707,-0.053522,0.264189
1424,238971100,0.931424,0.203200,0.025614,0.300838,-0.015989,-0.037310,0.248702
1425,238987767,0.931409,0.203248,0.025599,0.300854,-0.012991,0.005960,0.272999
1426,239004434,0.931397,0.203254,0.025577,0.300886,-0.043188,-0.027399,0.273702
1427,239021101,0.931387,0.203255,0.025524,0.300922,-0.041172,-0.031434,0.246246
1428,239037768,0.931389,0.203256,0.025471,0.300921,0.038139,-0.023033,0.237054
1429,239054435,0.931407,0.203245,0.025461,0.300873,0.000954,0.005318,0.245526
1430,239071102,0.931429,0.203193,0.025462,0.300838,0.032726,-0.018751,0.234980
1431,239087769,0.931441,0.203157,0.025461,0.300828,-0.029149,-0.021379,0.262675
1432,239104436,0.931433,0.203153,0.025391,0.300861,-0.050244,-0.036892,0.252364
1433,239121103,0.931427,0.203170,0.025268,0.300879,-0.023272,-0.013326,0.252482
1434,239137770,0.931435,0.203156,0.025120,0.300876,0.007735,-0.026901,0.240161
1435,239154437,0.931432,0.203189,0.025021,0.300871,0.012735,-0.025301,0.229803
1436,239171104,0.931427,0.203234,0.024958,0.300862,0.022980,-0.009697,0.273960
1437,239187771,0.931424,0.203266,0.024911,0.300852,0.012298,-0.036910,0.223552
1438,239204438,0.931414,0.203278,0.024811,0.300882,0.023904,-0.041042,0.246277
1439,239221105,0.931391,0.203398,0.024758,0.300877,0.021123,-0.061014,0.226822
1440,239237772,0.931340,0.203691,0.024758,0.300838,-0.090001,-0.086801,0.233532
1441,239254439,0.931306,0.203865,0.024581,0.300838,-0.051691,-0.051270,0.277910
1442,239271106,0.931291,0.203913,0.024534,0.300857,-0.004062,-0.007595,0.252536
1443,239287773,0.931275,0.203971,0.024492,0.300871,-0.025920,0.003359,0.285551
1444,239304440,0.931268,0.203955,0.024372,0.300912,0.035572,0.054221,0.284366
1445,239321107,0.931256,0.203920,0.024337,0.300976,-0.015868,0.011865,0.285346
1446,239337774,0.931252,0.203907,0.024304,0.301000,0.002725,-0.048733,0.242986
1447,239354441,0.931257,0.203927,0.024330,0.300970,0.022514,-0.011499,0.276182
1448,239371108,0.931256,0.203967,0.024367,0.300942,-0.027214,-0.025920,0.247457
1449,239387775,0.931260,0.203962,0.024355,0.300934,-0.000904,0.000410,0.227887
1450,239404442,0.931261,0.203948,0.024292,0.300945,-0.025928,-0.001693,0.194888
1451,239421109,0.931257,0.204021,0.024236,0.300912,0.018274,-0.018707,0.211296
1452,239437776,0.931251,0.204117,0.024204,0.300869,-0.012904,-0.034349,0.276080
1453,239454443,0.931263,0.204165,0.024199,0.300800,0.023503,-0.062651,0.258092
1454,239471110,0.931271,0.204288,0.024257,0.300685,0.019051,-0.032520,0.233611
1455,239487777,0.931272,0.204415,0.024315,0.300593,-0.022171,-0.024510,0.236175
1456,239504444,0.931274,0.204540,0.024322,0.300502,-0.020148,0.039665,0.242350
1457,239521111,0.931288,0.204599,0.024223,0.300426,-0.025352,0.015530,0.222296
1458,239537778,0.931293,0.204719,0.024037,0.300342,-0.011681,0.007360,0.191084
1459,239554445,0.931311,0.204821,0.023789,0.300237,-0.004182,-0.026112,0.254852
1460,239571112,0.931305,0.204945,0.023572,0.300188,-0.007962,-0.109757,0.282333
1461,239587779,0.931301,0.205030,0.023337,0.300162,0.085932,-0.120471,0.269216
1462,239604446,0.931247,0.205315,0.023240,0.300141,0.070424,-0.142408,0.244848
1463,239621113,0.931180,0.205680,0.023298,0.300095,-0.009298,-0.063528,0.266130
1464,239637780,0.931115,0.206019,0.023362,0.300058,-0.023877,0.005259,0.227255
1465,239654447,0.931058,0.206318,0.023470,0.300023,-0.038829,0.108542,0.273076
1466,239671114,0.931027,0.206425,0.023491,0.300043,-0.043326,0.072292,0.280239
1467,239687781,0.931018,0.206407,0.023484,0.300083,-0.026697,0.029878,0.307388
1468,239704448,0.931013,0.206345,0.023462,0.300145,-0.024319,-0.048378,0.250961
1469,239721115,0.931001,0.206318,0.023486,0.300198,0.015984,-0.073800,0.271803
1470,239737782,0.930985,0.206346,0.023567,0.300223,-0.036189,-0.052080,0.261106
1471,239754449,0.930989,0.206380,0.023621,0.300181,-0.047733,-0.051782,0.223033
1472,239771116,0.930981,0.206463,0.023675,0.300146,-0.061663,0.013989,0.224825
1473,239787783,0.931002,0.206411,0.023640,0.300117,-0.032114,0.013481,0.273244
1474,239804450,0.931030,0.206318,0.023645,0.300094,0.004135,-0.042056,0.289818
1475,239821117,0.931060,0.206244,0.023705,0.300046,0.004833,-0.016014,0.239305
1476,239837784,0.931092,0.206196,0.023759,0.299977,0.020851,-0.019286,0.208652
1477,239854451,0.931103,0.206240,0.023787,0.299911,0.000098,-0.009288,0.214129
1478,239871118,0.931110,0.206220,0.023752,0.299905,0.011298,-0.042712,0.205303
1479,239887785,0.931097,0.206319,0.023801,0.299873,0.028670,-0.060923,0.268441
1480,239904452,0.931080,0.206418,0.023866,0.299854,0.012031,-0.008947,0.297869
1481,239921119,0.931077,0.206417,0.023870,0.299861,0.008647,-0.003557,0.204271
1482,239937786,0.931044,0.206537,0.023869,0.299884,-0.007950,-0.015388,0.196311
1483,239954453,0.931007,0.206669,0.023839,0.299910,-0.015644,-0.008629,0.214947
1484,239971120,0.930973,0.206821,0.023754,0.299915,-0.009516,-0.039806,0.232131
1485,239987787,0.930939,0.207038,0.023626,0.299883,-0.001687,-0.047037,0.234275
1486,240004454,0.930911,0.207247,0.023502,0.299836,-0.000741,-0.056612,0.287473
1487,240021121,0.930877,0.207491,0.023370,0.299782,0.014857,-0.053781,0.290962
1488,240037788,0.930828,0.207775,0.023218,0.299750,-0.109825,-0.006966,0.234052
1489,240054455,0.930822,0.207838,0.022834,0.299755,-0.047714,0.010150,0.294775
1490,240071122,0.930794,0.207928,0.022562,0.299800,-0.042760,-0.012656,0.196372
1491,240087789,0.930766,0.208034,0.022340,0.299829,-0.010185,0.021622,0.325546
1492,240104456,0.930768,0.207927,0.022140,0.299912,0.001543,0.024194,0.324876
1493,240121123,0.930788,0.207782,0.021978,0.299961,0.071120,-0.001687,0.243325
1494,240137790,0.930800,0.207786,0.021982,0.299921,0.022691,-0.002058,0.243620
1495,240154457,0.930827,0.207774,0.021907,0.299853,0.043420,-0.014101,0.206164
1496,240171124,0.930814,0.207854,0.021872,0.299838,-0.016613,-0.066012,0.189549
1497,240187791,0.930782,0.207971,0.021821,0.299862,0.000991,-0.066583,0.205106
1498,240204458,0.930753,0.208092,0.021801,0.299870,-0.007901,-0.090663,0.255704
1499,240221125,0.930728,0.208233,0.021871,0.299844,-0.008818,-0.087642,0.273073
1500,240237792,0.930703,0.208354,0.021909,0.299835,-0.013001,-0.047265,0.248940
1501,240254459,0.930664,0.208597,0.022044,0.299777,-0.010388,0.006820,0.246904
1502,240271126,0.930636,0.208740,0.022090,0.299762,-0.049374,0.017698,0.240576
1503,240287793,0.930603,0.208872,0.022078,0.299773,-0.058359,-0.039562,0.268362
1504,240304460,0.930575,0.208976,0.022089,0.299784,-0.029215,-0.000135,0.293729
1505,240321127,0.930583,0.208949,0.022073,0.299782,-0.024717,0.015169,0.304973
1506,240337794,0.930579,0.208954,0.022013,0.299793,0.005965,0.030297,0.240321
1507,240354461,0.930585,0.208932,0.021878,0.299802,-0.054228,0.050792,0.251417
1508,240371128,0.930605,0.208776,0.021595,0.299868,-0.065602,-0.018706,0.268765
1509,240387795,0.930620,0.208630,0.021309,0.299943,0.004321,-0.052303,0.267491
1510,240404462,0.930645,0.208496,0.021143,0.299971,0.008346,-0.057729,0.267692
1511,240421129,0.930671,0.208404,0.021052,0.299960,0.014701,-0.076257,0.285559
1512,240437796,0.930696,0.208358,0.021061,0.299914,0.003004,-0.044871,0.275825
1513,240454463,0.930693,0.208361,0.021097,0.299919,0.021303,-0.070150,0.253860
1514,240471130,0.930676,0.208427,0.021174,0.299919,0.006414,-0.045996,0.287738
