time,seconds_elapsed,z,y,x
1715194781103313200,0.009313232421875,-1.21484375,-0.1475830078125,0.0080108642578125
1715194781113387300,0.01938720703125,-1.209075927734375,-0.135284423828125,0.1270904541015625
1715194781123461000,0.029461181640625,-1.21563720703125,-0.09588623046875,0.2275238037109375
1715194781133535200,0.03953515625,-1.1509246826171875,-0.0310516357421875,0.2093658447265625
1715194781143610000,0.049610107421875,-1.1561279296875,-0.048980712890625,0.2206268310546875
1715194781153684200,0.059684326171875,-1.1563720703125,-0.078369140625,0.211456298828125
1715194781163758300,0.06975830078125,-1.1456146240234375,-0.046173095703125,0.14202880859375
1715194781173833200,0.079833251953125,-1.1485748291015625,-0.0043487548828125,0.0811920166015625
1715194781183907300,0.0899072265625,-1.1212615966796875,-0.0098114013671875,0.017303466796875
1715194781193981200,0.099981201171875,-1.0524749755859375,-0.028228759765625,-0.0542449951171875
1715194781204055300,0.11005517578125,-0.9481658935546875,-0.051666259765625,-0.139068603515625
1715194781214130200,0.120130126953125,-0.8492431640625,-0.09185791015625,-0.2154083251953125
1715194781224204300,0.130204345703125,-0.7827606201171875,-0.1200103759765625,-0.2723846435546875
1715194781234278100,0.140278076171875,-0.715728759765625,-0.1474151611328125,-0.32421875
1715194781244353300,0.150353271484375,-0.65533447265625,-0.170196533203125,-0.352752685546875
1715194781254427100,0.16042724609375,-0.615570068359375,-0.15972900390625,-0.3481903076171875
1715194781264501200,0.170501220703125,-0.5977783203125,-0.1386871337890625,-0.3280181884765625
1715194781274575400,0.180575439453125,-0.6026153564453125,-0.1003265380859375,-0.328704833984375
1715194781284650200,0.190650146484375,-0.6119232177734375,-0.068450927734375,-0.35443115234375
1715194781294724400,0.200724365234375,-0.62860107421875,-0.0794219970703125,-0.3662567138671875
1715194781304798200,0.210798095703125,-0.6578216552734375,-0.112945556640625,-0.3546600341796875
1715194781314873300,0.220873291015625,-0.71783447265625,-0.143157958984375,-0.33441162109375
1715194781324947500,0.230947509765625,-0.8108673095703125,-0.1810302734375,-0.3264617919921875
1715194781335021300,0.241021240234375,-0.886322021484375,-0.197509765625,-0.3540802001953125
1715194781345095200,0.25109521484375,-0.9207611083984375,-0.2150726318359375,-0.3906402587890625
1715194781355170300,0.26117041015625,-0.9330291748046875,-0.2325592041015625,-0.4056854248046875
1715194781365244200,0.271244140625,-0.948822021484375,-0.2039947509765625,-0.377410888671875
1715194781375318300,0.281318359375,-0.9843292236328125,-0.1118011474609375,-0.2993011474609375
1715194781385392000,0.29139208984375,-0.9992523193359375,-0.0150909423828125,-0.229278564453125
1715194781395467300,0.30146728515625,-1.0047454833984375,0.0466156005859375,-0.187347412109375
1715194781405541000,0.311541015625,-1.026519775390625,0.0855712890625,-0.1712799072265625
1715194781415615200,0.321615234375,-1.0102996826171875,0.1056060791015625,-0.1768646240234375
1715194781425690000,0.331690185546875,-0.9444427490234375,0.1291046142578125,-0.2280120849609375
1715194781435764200,0.34176416015625,-0.885009765625,0.18304443359375,-0.2706451416015625
1715194781445838300,0.35183837890625,-0.836578369140625,0.255950927734375,-0.2764892578125
1715194781455912400,0.361912353515625,-0.80078125,0.327728271484375,-0.278167724609375
1715194781465987300,0.3719873046875,-0.80133056640625,0.411834716796875,-0.24664306640625
1715194781476061400,0.3820615234375,-0.80419921875,0.45599365234375,-0.1993865966796875
1715194781486135300,0.39213525390625,-0.8045654296875,0.4618072509765625,-0.1890106201171875
1715194781496210400,0.40221044921875,-0.7891998291015625,0.4217681884765625,-0.22296142578125
1715194781506284300,0.4122841796875,-0.7752838134765625,0.3705291748046875,-0.2979736328125
1715194781516358100,0.422358154296875,-0.77783203125,0.3639068603515625,-0.3569183349609375
1715194781526432300,0.432432373046875,-0.80419921875,0.3795623779296875,-0.384796142578125
1715194781536507100,0.442507080078125,-0.8640594482421875,0.378326416015625,-0.3870849609375
1715194781546581200,0.452581298828125,-0.9168548583984375,0.3464813232421875,-0.377471923828125
1715194781556655000,0.462655029296875,-0.9227142333984375,0.3238983154296875,-0.368499755859375
1715194781566730200,0.472730224609375,-0.9102935791015625,0.28546142578125,-0.4123992919921875
1715194781576804000,0.48280419921875,-0.9651031494140625,0.207489013671875,-0.485137939453125
1715194781586878200,0.492878173828125,-1.0293731689453125,0.17401123046875,-0.5474090576171875
1715194781596952300,0.502952392578125,-1.0717315673828125,0.145172119140625,-0.5855712890625
1715194781607027200,0.513027099609375,-1.0740203857421875,0.0817108154296875,-0.523712158203125
1715194781617101300,0.523101318359375,-1.082550048828125,-0.0283050537109375,-0.3899383544921875
1715194781627175400,0.533175537109375,-1.0897216796875,-0.0850677490234375,-0.2780303955078125
1715194781637250300,0.543250244140625,-1.1103668212890625,-0.073211669921875,-0.210418701171875
1715194781647324400,0.553324462890625,-1.166656494140625,-0.0417327880859375,-0.17413330078125
1715194781657398300,0.563398193359375,-1.208831787109375,0.020782470703125,-0.12451171875
1715194781667472100,0.57347216796875,-1.173095703125,0.0583343505859375,-0.1141204833984375
1715194781677547300,0.58354736328125,-1.202606201171875,0.00860595703125,-0.165283203125
1715194781687621400,0.593621337890625,-1.1879730224609375,-0.0147552490234375,-0.2164459228515625
1715194781697695200,0.6036953125,-1.0621185302734375,-0.0272064208984375,-0.2441864013671875
1715194781707770400,0.613770263671875,-0.961944580078125,-0.076995849609375,-0.262359619140625
1715194781717844200,0.62384423828125,-0.918609619140625,-0.1252899169921875,-0.262237548828125
1715194781727918000,0.63391796875,-0.9092559814453125,-0.1497802734375,-0.257598876953125
1715194781737992200,0.6439921875,-0.9444732666015625,-0.171661376953125,-0.2458953857421875
1715194781748067000,0.654067138671875,-0.9726409912109375,-0.185150146484375,-0.2332763671875
1715194781758141200,0.66414111328125,-0.98052978515625,-0.210693359375,-0.2238616943359375
1715194781768215300,0.67421533203125,-0.9862060546875,-0.2163543701171875,-0.2151947021484375
1715194781778290200,0.684290283203125,-0.9486083984375,-0.107513427734375,-0.2038726806640625
1715194781788364300,0.6943642578125,-0.7794189453125,0.00042724609375,-0.207733154296875
1715194781798438400,0.7044384765625,-0.5754241943359375,0.0534820556640625,-0.2034912109375
1715194781808512300,0.71451220703125,-0.3864288330078125,0.0916748046875,-0.190521240234375
1715194781818587400,0.72458740234375,0.05975341796875,0.2543487548828125,-0.4151763916015625
1715194781828661200,0.7346611328125,-2.088592529296875,0.0729522705078125,-0.5902557373046875
1715194781838735400,0.7447353515625,-3.14306640625,-0.0882110595703125,-0.5951995849609375
1715194781848809200,0.754809326171875,-0.88763427734375,0.29315185546875,-0.141937255859375
1715194781858884400,0.76488427734375,-0.3277130126953125,0.163848876953125,0.0464935302734375
1715194781868958200,0.774958251953125,-0.6432342529296875,-0.020111083984375,-0.0630645751953125
1715194781879032000,0.785031982421875,-0.7640380859375,-0.0006256103515625,-0.149932861328125
1715194781889107200,0.795107177734375,-0.933258056640625,0.0585174560546875,-0.1291351318359375
1715194781899181000,0.80518115234375,-1.136688232421875,0.044921875,-0.1240081787109375
1715194781909255200,0.815255126953125,-1.3101348876953125,0.0011138916015625,-0.1917724609375
1715194781919329300,0.825329345703125,-1.4512786865234375,-0.0176544189453125,-0.208770751953125
1715194781929404200,0.835404052734375,-1.3996429443359375,0.0425872802734375,-0.1312103271484375
1715194781939478300,0.845478271484375,-1.0851593017578125,0.073028564453125,-0.0926513671875
1715194781949552400,0.855552490234375,-0.72479248046875,-0.00555419921875,-0.130615234375
1715194781959627300,0.865627197265625,-0.607696533203125,-0.076568603515625,-0.1145172119140625
1715194781969701400,0.875701416015625,-0.58221435546875,-0.0900115966796875,-0.067596435546875
1715194781979775200,0.885775146484375,-0.6825408935546875,-0.0897369384765625,-0.0389556884765625
1715194781989849300,0.895849365234375,-0.889251708984375,-0.0552978515625,-0.0293121337890625
1715194781999924200,0.90592431640625,-1.0894012451171875,-0.0238037109375,-0.05029296875
1715194782009998300,0.915998291015625,-1.196533203125,-0.008026123046875,-0.0940704345703125
1715194782020072200,0.926072265625,-1.1803131103515625,0.003814697265625,-0.1334075927734375
1715194782030147600,0.936147705078125,-1.0780487060546875,0.0006866455078125,-0.1412353515625
1715194782040221700,0.9462216796875,-0.9739990234375,-0.006500244140625,-0.12322998046875
1715194782050295600,0.956295654296875,-0.93597412109375,0.0026092529296875,-0.0930938720703125
1715194782060369400,0.966369384765625,-0.965545654296875,0.0113067626953125,-0.0745086669921875
1715194782070444500,0.976444580078125,-1.0242156982421875,0.0095367431640625,-0.0855712890625
1715194782080518400,0.986518310546875,-1.065155029296875,0.0087127685546875,-0.1120147705078125
1715194782090592500,0.996592529296875,-1.07135009765625,0.002227783203125,-0.1345062255859375
1715194782100667400,1.00666748046875,-1.036041259765625,-0.0073394775390625,-0.13397216796875
1715194782110741500,1.016741455078125,-0.9986419677734375,-0.011505126953125,-0.11688232421875
1715194782120815600,1.026815673828125,-0.9783477783203125,-0.025543212890625,-0.10638427734375
1715194782130889700,1.0368896484375,-0.9728240966796875,-0.0291595458984375,-0.0966644287109375
1715194782140964600,1.046964599609375,-0.975860595703125,-0.0216217041015625,-0.08441162109375
1715194782151038700,1.057038818359375,-0.9774627685546875,-0.0124053955078125,-0.0887298583984375
1715194782161112600,1.067112548828125,-0.9660797119140625,-0.0076751708984375,-0.0988006591796875
1715194782171187700,1.077187744140625,-0.9614410400390625,-0.0031890869140625,-0.1057281494140625
1715194782181261600,1.087261474609375,-0.978515625,0.00189208984375,-0.1068115234375
1715194782191335700,1.097335693359375,-1.0018463134765625,-0.00360107421875,-0.101776123046875
1715194782201409500,1.107409423828125,-1.011505126953125,-0.0072021484375,-0.0876007080078125
1715194782211484700,1.117484619140625,-1.01348876953125,-0.0100860595703125,-0.0699920654296875
1715194782221558500,1.12755859375,-1.0158233642578125,-0.0157928466796875,-0.049652099609375
1715194782231632400,1.13763232421875,-1.0290069580078125,-0.026763916015625,-0.0414276123046875
1715194782241707500,1.14770751953125,-1.0302581787109375,-0.044891357421875,-0.061370849609375
1715194782251781400,1.157781494140625,-0.9894561767578125,-0.0474395751953125,-0.10382080078125
1715194782261855500,1.16785546875,-0.9458465576171875,-0.015411376953125,-0.13922119140625
1715194782271929600,1.1779296875,-0.9515228271484375,0.017120361328125,-0.142669677734375
1715194782282004500,1.18800439453125,-1.0041351318359375,0.0262298583984375,-0.1217041015625
1715194782292078600,1.19807861328125,-1.04010009765625,0.0118560791015625,-0.1072540283203125
1715194782302152700,1.208152587890625,-1.0220489501953125,-0.0039520263671875,-0.1065673828125
1715194782312226600,1.2182265625,-0.98065185546875,-0.0062103271484375,-0.1072998046875
1715194782322301700,1.2283017578125,-0.959259033203125,-0.0111541748046875,-0.1088409423828125
1715194782332375600,1.23837548828125,-0.9633636474609375,-0.0067138671875,-0.106781005859375
1715194782342449700,1.24844970703125,-0.980438232421875,-0.00433349609375,-0.1039886474609375
1715194782352524500,1.258524658203125,-0.9967498779296875,-0.00067138671875,-0.101776123046875
1715194782362598700,1.2685986328125,-1.008270263671875,0.0032958984375,-0.106292724609375
1715194782372672500,1.278672607421875,-1.0069732666015625,0.001251220703125,-0.1074981689453125
1715194782382746400,1.288746337890625,-0.9973907470703125,-0.00482177734375,-0.1081695556640625
1715194782392821500,1.298821533203125,-0.9839630126953125,-0.0085296630859375,-0.112091064453125
1715194782402895600,1.3088955078125,-0.9852294921875,0.000335693359375,-0.1070404052734375
1715194782412969500,1.318969482421875,-0.9977874755859375,0.00250244140625,-0.1142425537109375
1715194782423044600,1.329044677734375,-1.0043792724609375,0.00079345703125,-0.1195068359375
1715194782433118500,1.339118408203125,-1.0029754638671875,-0.001220703125,-0.118255615234375
1715194782443192600,1.349192626953125,-0.99603271484375,-0.0034332275390625,-0.1185150146484375
1715194782453266700,1.3592666015625,-0.988189697265625,-0.016326904296875,-0.1212615966796875
1715194782463341600,1.369341552734375,-0.987274169921875,-0.011505126953125,-0.112396240234375
1715194782473415700,1.379415771484375,-0.9972991943359375,-0.003326416015625,-0.1100006103515625
1715194782483489500,1.389489501953125,-1.00225830078125,-0.0076141357421875,-0.11602783203125
1715194782493563600,1.399563720703125,-0.991485595703125,-0.0100555419921875,-0.1140594482421875
1715194782503638500,1.409638427734375,-0.98394775390625,-0.00750732421875,-0.1109619140625
1715194782513712600,1.419712646484375,-0.9872589111328125,-0.003997802734375,-0.1156158447265625
1715194782523786500,1.429786376953125,-0.9980926513671875,-0.0018463134765625,-0.1211090087890625
1715194782533861600,1.439861572265625,-1.00048828125,-0.0023193359375,-0.126007080078125
1715194782543935500,1.449935546875,-0.9948883056640625,-0.008087158203125,-0.1243438720703125
1715194782554009600,1.460009521484375,-0.9908294677734375,-0.0117645263671875,-0.1195068359375
1715194782564083500,1.47008349609375,-0.99652099609375,-0.00909423828125,-0.115814208984375
1715194782574158600,1.48015869140625,-1.004425048828125,-0.00787353515625,-0.1151275634765625
1715194782584232400,1.490232421875,-0.9986724853515625,-0.0111236572265625,-0.1239776611328125
1715194782594306600,1.500306640625,-0.982086181640625,-0.0046844482421875,-0.129638671875
1715194782604381400,1.51038134765625,-0.988311767578125,0.004364013671875,-0.124053955078125
1715194782614455600,1.52045556640625,-1.0045623779296875,0.00244140625,-0.1215057373046875
1715194782624529700,1.53052978515625,-0.99737548828125,-0.0076904296875,-0.1215667724609375
1715194782634603500,1.540603515625,-0.9842987060546875,-0.0140838623046875,-0.1185150146484375
1715194782644678700,1.5506787109375,-0.9811553955078125,-0.0140228271484375,-0.1184234619140625
1715194782654752500,1.56075244140625,-0.9897308349609375,-0.0185089111328125,-0.1215057373046875
1715194782664826600,1.57082666015625,-0.995941162109375,-0.0157928466796875,-0.1212921142578125
1715194782674900500,1.580900390625,-0.9939727783203125,-0.007659912109375,-0.1265869140625
1715194782684975600,1.5909755859375,-0.9883575439453125,-0.0115966796875,-0.1305694580078125
1715194782695049500,1.601049560546875,-0.985809326171875,-0.0118560791015625,-0.12176513671875
1715194782705123600,1.61112353515625,-0.990875244140625,-0.0106353759765625,-0.1209869384765625
1715194782715198500,1.621198486328125,-0.99334716796875,-0.009185791015625,-0.1223297119140625
1715194782725272600,1.6312724609375,-0.9889373779296875,-0.012725830078125,-0.126251220703125
1715194782735346400,1.641346435546875,-0.9860076904296875,-0.00970458984375,-0.121063232421875
1715194782745420500,1.651420654296875,-0.9943084716796875,-0.0105133056640625,-0.12188720703125
1715194782755495400,1.661495361328125,-0.994140625,-0.0134735107421875,-0.127227783203125
1715194782765569800,1.67156982421875,-0.9853515625,-0.0103302001953125,-0.127838134765625
1715194782775643600,1.6816435546875,-0.9863739013671875,-0.0057373046875,-0.12615966796875
1715194782785718800,1.69171875,-0.9955291748046875,-0.008148193359375,-0.1225128173828125
1715194782795792600,1.701792724609375,-1.002105712890625,-0.009918212890625,-0.1213836669921875
1715194782805866500,1.711866455078125,-0.993743896484375,-0.008270263671875,-0.1219329833984375
1715194782815940600,1.721940673828125,-0.9862213134765625,-0.009368896484375,-0.1273345947265625
1715194782826015500,1.732015380859375,-0.9876251220703125,-0.008575439453125,-0.1306304931640625
1715194782836089600,1.742089599609375,-0.98956298828125,-0.007171630859375,-0.127593994140625
1715194782846163500,1.75216357421875,-0.98944091796875,-0.0078887939453125,-0.130035400390625
1715194782856237600,1.762237548828125,-0.9887847900390625,-0.0074920654296875,-0.1318817138671875
1715194782866312400,1.7723125,-0.990509033203125,-0.0086822509765625,-0.130584716796875
1715194782876386600,1.782386474609375,-0.9901123046875,-0.0084228515625,-0.12823486328125
1715194782886460400,1.79246044921875,-0.9911041259765625,-0.005584716796875,-0.1233978271484375
1715194782896535600,1.80253564453125,-0.9941864013671875,-0.0087127685546875,-0.12396240234375
1715194782906609400,1.812609375,-0.9913482666015625,-0.010589599609375,-0.127349853515625
1715194782916683800,1.822683837890625,-0.9889678955078125,-0.006622314453125,-0.1275177001953125
1715194782926757600,1.832757568359375,-0.9897613525390625,-0.009246826171875,-0.1236114501953125
1715194782936832800,1.842832763671875,-0.991485595703125,-0.0086669921875,-0.1236114501953125
1715194782946906600,1.85290673828125,-0.9896087646484375,-0.0095367431640625,-0.1234130859375
1715194782956980500,1.86298046875,-0.990203857421875,-0.009521484375,-0.123626708984375
1715194782967054600,1.8730546875,-0.9882965087890625,-0.0088653564453125,-0.1264495849609375
1715194782977129500,1.88312939453125,-0.99267578125,-0.007781982421875,-0.1255035400390625
1715194782987203600,1.89320361328125,-0.993865966796875,-0.01068115234375,-0.12774658203125
1715194782997277400,1.90327734375,-0.991241455078125,-0.0115509033203125,-0.1271514892578125
1715194783007352600,1.9133525390625,-0.989105224609375,-0.009613037109375,-0.12969970703125
1715194783017426400,1.923426513671875,-0.991790771484375,-0.0105743408203125,-0.1289825439453125
1715194783027500000,1.9335,-0.9952850341796875,-0.0107421875,-0.1302490234375
1715194783037574400,1.943574462890625,-0.9948272705078125,-0.0071258544921875,-0.1276397705078125
1715194783047649000,1.95364892578125,-0.992889404296875,-0.008880615234375,-0.1269073486328125
1715194783057723400,1.963723388671875,-0.9927215576171875,-0.0101470947265625,-0.129150390625
1715194783067797200,1.97379736328125,-0.9920501708984375,-0.010589599609375,-0.1270599365234375
1715194783077871000,1.98387109375,-0.992340087890625,-0.0094146728515625,-0.124664306640625
1715194783087946200,1.9939462890625,-0.989471435546875,-0.0087127685546875,-0.1259613037109375
1715194783098020400,2.004020263671875,-0.989166259765625,-0.0091552734375,-0.12884521484375
1715194783108094200,2.01409423828125,-0.989959716796875,-0.008544921875,-0.126922607421875
1715194783118169300,2.02416943359375,-0.9898529052734375,-0.0081329345703125,-0.1283416748046875
1715194783128243200,2.0342431640625,-0.9916839599609375,-0.0077056884765625,-0.1294708251953125
1715194783138317000,2.044317138671875,-0.990997314453125,-0.006500244140625,-0.1308135986328125
1715194783148391200,2.05439111328125,-0.9908905029296875,-0.0062255859375,-0.130767822265625
1715194783158466000,2.064466064453125,-0.994598388671875,-0.007354736328125,-0.127471923828125
1715194783168540200,2.0745400390625,-0.9932708740234375,-0.010009765625,-0.1266021728515625
1715194783178614000,2.084614013671875,-0.99005126953125,-0.009063720703125,-0.1281280517578125
1715194783188688400,2.0946884765625,-0.991058349609375,-0.007080078125,-0.130340576171875
1715194783198763000,2.104762939453125,-0.992279052734375,-0.006317138671875,-0.1300048828125
1715194783208837400,2.11483740234375,-0.988067626953125,-0.00567626953125,-0.130828857421875
1715194783218911200,2.1249111328125,-0.98797607421875,-0.006561279296875,-0.1291046142578125
1715194783228986400,2.134986328125,-0.9893646240234375,-0.0055999755859375,-0.129364013671875
1715194783239060200,2.145060302734375,-0.9909210205078125,-0.006805419921875,-0.128143310546875
1715194783249134300,2.15513427734375,-0.9921875,-0.0091094970703125,-0.1269073486328125
1715194783259208200,2.165208251953125,-0.990264892578125,-0.00970458984375,-0.12884521484375
1715194783269283300,2.175283447265625,-0.98980712890625,-0.0078887939453125,-0.1290130615234375
1715194783279357200,2.185357177734375,-0.988372802734375,-0.00628662109375,-0.13177490234375
1715194783289431000,2.19543115234375,-0.9896392822265625,-0.0071563720703125,-0.1315155029296875
1715194783299505200,2.205505126953125,-0.9920806884765625,-0.0082550048828125,-0.1294708251953125
1715194783309580000,2.215580078125,-0.9914398193359375,-0.007293701171875,-0.130126953125
1715194783319654100,2.225654052734375,-0.9917755126953125,-0.0100555419921875,-0.1267242431640625
1715194783329728000,2.23572802734375,-0.9929046630859375,-0.009796142578125,-0.12506103515625
1715194783339803100,2.24580322265625,-0.9915771484375,-0.0097503662109375,-0.1259918212890625
1715194783349877000,2.255876953125,-0.9891357421875,-0.0087890625,-0.126617431640625
1715194783359951400,2.265951416015625,-0.9890899658203125,-0.0087432861328125,-0.127960205078125
1715194783370025200,2.276025146484375,-0.991241455078125,-0.008636474609375,-0.1229248046875
1715194783380100400,2.286100341796875,-0.994140625,-0.0074462890625,-0.1258697509765625
1715194783390174200,2.29617431640625,-0.994354248046875,-0.006805419921875,-0.1309356689453125
1715194783400248300,2.306248291015625,-0.9922943115234375,-0.0076751708984375,-0.1312103271484375
1715194783410322200,2.316322265625,-0.992218017578125,-0.0075531005859375,-0.135589599609375
1715194783420397300,2.326397216796875,-0.993377685546875,-0.006683349609375,-0.1393890380859375
1715194783430471200,2.33647119140625,-0.9903564453125,-0.0039215087890625,-0.1402740478515625
1715194783440545000,2.346544921875,-0.9927215576171875,-0.0055084228515625,-0.132110595703125
1715194783450619100,2.356619140625,-0.99627685546875,-0.0045166015625,-0.127471923828125
1715194783460694300,2.3666943359375,-0.9936676025390625,-0.004302978515625,-0.1274566650390625
1715194783470768000,2.37676806640625,-0.9892730712890625,-0.0068359375,-0.129180908203125
1715194783480842200,2.38684228515625,-0.9899139404296875,-0.0063934326171875,-0.1266937255859375
1715194783490917000,2.396917236328125,-0.9905548095703125,-0.0090789794921875,-0.127410888671875
1715194783500991200,2.4069912109375,-0.988983154296875,-0.0086517333984375,-0.1257171630859375
1715194783511065300,2.4170654296875,-0.98992919921875,-0.0078887939453125,-0.12689208984375
1715194783521139200,2.42713916015625,-0.9883575439453125,-0.008087158203125,-0.129425048828125
1715194783531214300,2.43721435546875,-0.987640380859375,-0.006439208984375,-0.129425048828125
1715194783541288200,2.4472880859375,-0.9901580810546875,-0.006439208984375,-0.128173828125
1715194783551362300,2.4573623046875,-0.9918060302734375,-0.00543212890625,-0.1262359619140625
1715194783561436200,2.467436279296875,-0.9925689697265625,-0.00677490234375,-0.128631591796875
1715194783571511300,2.47751123046875,-0.9907989501953125,-0.0078125,-0.12738037109375
1715194783581585200,2.487585205078125,-0.992645263671875,-0.005462646484375,-0.128570556640625
1715194783591659300,2.4976591796875,-0.9907989501953125,-0.0056610107421875,-0.129425048828125
1715194783601734100,2.507734130859375,-0.9884033203125,-0.0069732666015625,-0.1297454833984375
1715194783611808300,2.517808349609375,-0.98919677734375,-0.00811767578125,-0.127960205078125
1715194783621882000,2.527882080078125,-0.989349365234375,-0.007598876953125,-0.1251068115234375
1715194783631956200,2.537956298828125,-0.9915313720703125,-0.0099029541015625,-0.1254119873046875
1715194783642031000,2.548031005859375,-0.9903717041015625,-0.0078582763671875,-0.1282958984375
1715194783652105200,2.558105224609375,-0.9944915771484375,-0.007049560546875,-0.1269073486328125
1715194783662179300,2.568179443359375,-0.9963226318359375,-0.0082550048828125,-0.1260833740234375
1715194783672253200,2.578253173828125,-0.991668701171875,-0.005096435546875,-0.1280364990234375
1715194783682328300,2.588328369140625,-0.9937896728515625,-0.007171630859375,-0.12493896484375
1715194783692402200,2.598402099609375,-0.9931488037109375,-0.00665283203125,-0.125152587890625
1715194783702476300,2.608476318359375,-0.993743896484375,-0.00469970703125,-0.1282806396484375
1715194783712550100,2.618550048828125,-0.996185302734375,-0.0077972412109375,-0.1278533935546875
1715194783722625300,2.628625244140625,-0.9939422607421875,-0.0078582763671875,-0.129730224609375
1715194783732699100,2.63869921875,-0.9920196533203125,-0.0079345703125,-0.127197265625
1715194783742773200,2.648773193359375,-0.9911041259765625,-0.009368896484375,-0.1304931640625
1715194783752848100,2.65884814453125,-0.9860992431640625,-0.0096588134765625,-0.1314849853515625
1715194783762922200,2.668922119140625,-0.9840240478515625,-0.0094451904296875,-0.12750244140625
1715194783772996000,2.67899609375,-0.9930267333984375,-0.0052032470703125,-0.11651611328125
1715194783783070200,2.6890703125,-0.9985198974609375,-0.0081634521484375,-0.1142425537109375
1715194783793145000,2.69914501953125,-0.9929962158203125,-0.0077667236328125,-0.129058837890625
1715194783803219200,2.70921923828125,-0.982330322265625,-0.010162353515625,-0.138824462890625
1715194783813293300,2.719293212890625,-0.9829559326171875,-0.008056640625,-0.1288604736328125
1715194783823367200,2.7293671875,-0.9973907470703125,-0.009063720703125,-0.12164306640625
1715194783833442300,2.7394423828125,-0.9958343505859375,-0.0089263916015625,-0.1216583251953125
1715194783843516200,2.74951611328125,-0.9906005859375,-0.007781982421875,-0.1268768310546875
1715194783853590300,2.75959033203125,-0.98602294921875,-0.0063629150390625,-0.131195068359375
1715194783863664000,2.7696640625,-0.988494873046875,-0.008544921875,-0.12713623046875
1715194783873739300,2.7797392578125,-0.99200439453125,-0.006256103515625,-0.1241912841796875
1715194783883813000,2.789813232421875,-0.99072265625,-0.0061798095703125,-0.1305999755859375
1715194783893887200,2.79988720703125,-0.98406982421875,-0.0078582763671875,-0.1306304931640625
1715194783903962000,2.809962158203125,-0.9870758056640625,-0.0079498291015625,-0.12799072265625
1715194783914036200,2.8200361328125,-0.9910888671875,-0.0066375732421875,-0.12664794921875
1715194783924110000,2.830110107421875,-0.9904632568359375,-0.0065155029296875,-0.1263885498046875
1715194783934184200,2.84018408203125,-0.9850616455078125,-0.0052337646484375,-0.123809814453125
1715194783944259000,2.850259033203125,-0.9850921630859375,-0.0072479248046875,-0.122222900390625
1715194783954333200,2.860333251953125,-0.9847564697265625,-0.007537841796875,-0.1279296875
1715194783964407300,2.8704072265625,-0.9756927490234375,-0.006683349609375,-0.1359100341796875
1715194783974481200,2.880481201171875,-0.977996826171875,-0.0062713623046875,-0.13470458984375
1715194783984556300,2.890556396484375,-0.9910888671875,-0.0111541748046875,-0.1282501220703125
1715194783994630100,2.900630126953125,-1.009918212890625,-0.0101318359375,-0.1221923828125
1715194784004704300,2.910704345703125,-1.0168914794921875,-0.0078277587890625,-0.1194915771484375
1715194784014778000,2.920778076171875,-1.005615234375,-0.007415771484375,-0.123992919921875
1715194784024853200,2.930853271484375,-0.9958953857421875,-0.004913330078125,-0.12957763671875
1715194784034926600,2.940926513671875,-0.9924774169921875,-0.005889892578125,-0.1271209716796875
1715194784045000400,2.95100048828125,-0.992828369140625,-0.00640869140625,-0.1236572265625
1715194784055074800,2.96107470703125,-0.98944091796875,-0.0064239501953125,-0.1260986328125
1715194784065149400,2.9711494140625,-0.9846038818359375,-0.006011962890625,-0.1287384033203125
1715194784075223800,2.981223876953125,-0.9862060546875,-0.0081787109375,-0.125640869140625
1715194784085297700,2.991297607421875,-0.9888916015625,-0.0083465576171875,-0.121826171875
1715194784095372800,3.001372802734375,-0.99072265625,-0.0099639892578125,-0.1190185546875
1715194784105446700,3.01144677734375,-0.990814208984375,-0.008819580078125,-0.1214141845703125
1715194784115520800,3.021520751953125,-0.9889068603515625,-0.01007080078125,-0.1243896484375
1715194784125594600,3.0315947265625,-0.9888916015625,-0.0082855224609375,-0.1245574951171875
1715194784135669800,3.041669677734375,-0.9921875,-0.0086517333984375,-0.125396728515625
1715194784145743600,3.05174365234375,-0.993988037109375,-0.0090789794921875,-0.1289825439453125
1715194784155817500,3.0618173828125,-0.9923095703125,-0.00640869140625,-0.133026123046875
1715194784165891600,3.0718916015625,-0.9900054931640625,-0.0068359375,-0.1295013427734375
1715194784175966500,3.081966552734375,-0.99322509765625,-0.009521484375,-0.121002197265625
1715194784186040600,3.09204052734375,-0.99542236328125,-0.0085601806640625,-0.1276702880859375
1715194784196114400,3.102114501953125,-0.9867706298828125,-0.006072998046875,-0.13555908203125
1715194784206188800,3.112188720703125,-0.985443115234375,-0.0091552734375,-0.126678466796875
1715194784216263400,3.122263427734375,-0.9927520751953125,-0.009429931640625,-0.122344970703125
1715194784226337800,3.132337890625,-0.9948883056640625,-0.008209228515625,-0.125640869140625
1715194784236411600,3.14241162109375,-0.99017333984375,-0.0092926025390625,-0.1259613037109375
1715194784246485800,3.15248583984375,-0.989227294921875,-0.0081634521484375,-0.1225128173828125
1715194784256560600,3.162560546875,-0.9954376220703125,-0.007232666015625,-0.124969482421875
1715194784266634800,3.172634765625,-0.9927825927734375,-0.008148193359375,-0.1241455078125
1715194784276708600,3.18270849609375,-0.987457275390625,-0.0091400146484375,-0.1243743896484375
1715194784286783700,3.19278369140625,-0.989959716796875,-0.00811767578125,-0.1260223388671875
1715194784296857600,3.202857666015625,-0.9914703369140625,-0.0070953369140625,-0.1282806396484375
1715194784306931700,3.212931640625,-0.9900970458984375,-0.00830078125,-0.1280059814453125
1715194784317005600,3.223005615234375,-0.9889678955078125,-0.009033203125,-0.1290740966796875
1715194784327080700,3.233080810546875,-0.99127197265625,-0.0082550048828125,-0.1269683837890625
1715194784337154600,3.243154541015625,-0.9909210205078125,-0.0085601806640625,-0.1251373291015625
1715194784347228400,3.253228515625,-0.9903411865234375,-0.0074310302734375,-0.1238861083984375
1715194784357302800,3.263302734375,-0.9918060302734375,-0.0081787109375,-0.122467041015625
1715194784367377400,3.27337744140625,-0.9926910400390625,-0.009735107421875,-0.12677001953125
1715194784377451800,3.28345166015625,-0.9924468994140625,-0.007537841796875,-0.124176025390625
1715194784387525600,3.293525634765625,-0.9919586181640625,-0.0079803466796875,-0.123992919921875
1715194784397599700,3.303599853515625,-0.9916229248046875,-0.008697509765625,-0.1247100830078125
1715194784407674600,3.313674560546875,-0.9915771484375,-0.0078582763671875,-0.12469482421875
1715194784417748700,3.323748779296875,-0.9903564453125,-0.007568359375,-0.1238555908203125
1715194784427822600,3.333822509765625,-0.9895172119140625,-0.006866455078125,-0.1245269775390625
1715194784437897700,3.343897705078125,-0.9901123046875,-0.00787353515625,-0.12652587890625
1715194784447971600,3.3539716796875,-0.989898681640625,-0.0084686279296875,-0.126190185546875
1715194784458045700,3.364045654296875,-0.9905548095703125,-0.007568359375,-0.12542724609375
1715194784468119600,3.37411962890625,-0.9907073974609375,-0.0081024169921875,-0.1259918212890625
1715194784478194700,3.384194580078125,-0.990386962890625,-0.0095672607421875,-0.123809814453125
1715194784488268500,3.3942685546875,-0.990081787109375,-0.009307861328125,-0.127716064453125
1715194784498342400,3.40434228515625,-0.9922637939453125,-0.008392333984375,-0.1244964599609375
1715194784508416800,3.414416748046875,-0.9914703369140625,-0.007080078125,-0.123992919921875
1715194784518491400,3.424491455078125,-0.991241455078125,-0.0080413818359375,-0.127044677734375
1715194784528565800,3.434565673828125,-0.9904327392578125,-0.00927734375,-0.1255340576171875
1715194784538639600,3.4446396484375,-0.9909820556640625,-0.006805419921875,-0.1249237060546875
1715194784548713700,3.454713623046875,-0.99114990234375,-0.0074920654296875,-0.1256103515625
1715194784558788600,3.46478857421875,-0.9918060302734375,-0.00946044921875,-0.1244659423828125
1715194784568862700,3.47486279296875,-0.9913177490234375,-0.0085601806640625,-0.124786376953125
1715194784578936600,3.4849365234375,-0.99066162109375,-0.008636474609375,-0.1253204345703125
1715194784589010700,3.4950107421875,-0.990814208984375,-0.0067901611328125,-0.125946044921875
1715194784599085600,3.50508544921875,-0.9892120361328125,-0.007171630859375,-0.126678466796875
1715194784609159700,3.51515966796875,-0.9907989501953125,-0.008270263671875,-0.123291015625
1715194784619233500,3.525233642578125,-0.991973876953125,-0.007659912109375,-0.12384033203125
1715194784629307400,3.535307373046875,-0.9904937744140625,-0.0076751708984375,-0.1255645751953125
1715194784639382500,3.545382568359375,-0.990325927734375,-0.00750732421875,-0.1242828369140625
1715194784649456400,3.555456298828125,-0.991546630859375,-0.0079193115234375,-0.126129150390625
1715194784659530800,3.56553076171875,-0.9914398193359375,-0.0075836181640625,-0.1282196044921875
1715194784669605600,3.575605712890625,-0.9899749755859375,-0.0085601806640625,-0.1251068115234375
1715194784679679700,3.5856796875,-0.9916534423828125,-0.00787353515625,-0.1241912841796875
1715194784689753600,3.595753662109375,-0.9919281005859375,-0.009429931640625,-0.125579833984375
1715194784699827700,3.60582763671875,-0.9908447265625,-0.00701904296875,-0.1261138916015625
1715194784709902600,3.615902587890625,-0.9906005859375,-0.00799560546875,-0.124267578125
1715194784719976700,3.625976806640625,-0.992218017578125,-0.0079803466796875,-0.1251068115234375
1715194784730050600,3.636050537109375,-0.990814208984375,-0.0077362060546875,-0.1236572265625
1715194784740124700,3.646124755859375,-0.990203857421875,-0.007843017578125,-0.1236572265625
1715194784750199600,3.656199462890625,-0.9907073974609375,-0.009033203125,-0.1256561279296875
1715194784760273700,3.666273681640625,-0.9913330078125,-0.0078887939453125,-0.1264801025390625
1715194784770347500,3.676347412109375,-0.9908447265625,-0.00811767578125,-0.1252288818359375
1715194784780421600,3.686421630859375,-0.991058349609375,-0.00823974609375,-0.127044677734375
1715194784790496500,3.69649658203125,-0.9898681640625,-0.00848388671875,-0.125
1715194784800570600,3.706570556640625,-0.992218017578125,-0.008880615234375,-0.1256561279296875
1715194784810644700,3.716644775390625,-0.991851806640625,-0.0070343017578125,-0.1252899169921875
1715194784820718600,3.726718505859375,-0.9921722412109375,-0.00762939453125,-0.1253204345703125
1715194784830793700,3.736793701171875,-0.99151611328125,-0.0099029541015625,-0.1259002685546875
1715194784840867600,3.74686767578125,-0.99102783203125,-0.0079498291015625,-0.1241607666015625
1715194784850941700,3.756941650390625,-0.992279052734375,-0.00555419921875,-0.124114990234375
1715194784861015600,3.767015625,-0.9905548095703125,-0.0074615478515625,-0.12554931640625
1715194784871090700,3.777090576171875,-0.991302490234375,-0.007843017578125,-0.12591552734375
1715194784881164500,3.78716455078125,-0.991973876953125,-0.007080078125,-0.1243896484375
1715194784891238700,3.79723876953125,-0.9924163818359375,-0.0085296630859375,-0.125091552734375
1715194784901312500,3.8073125,-0.99041748046875,-0.0073699951171875,-0.1270599365234375
1715194784911387600,3.8173876953125,-0.9892425537109375,-0.00628662109375,-0.126220703125
1715194784921461500,3.82746142578125,-0.9901123046875,-0.008056640625,-0.1245880126953125
1715194784931535600,3.83753564453125,-0.990997314453125,-0.00787353515625,-0.1235809326171875
1715194784941610500,3.847610595703125,-0.993316650390625,-0.0070953369140625,-0.1256103515625
1715194784951684600,3.8576845703125,-0.990692138671875,-0.0075531005859375,-0.1262359619140625
1715194784961758700,3.8677587890625,-0.989227294921875,-0.0091400146484375,-0.1262054443359375
1715194784971832600,3.87783251953125,-0.9922943115234375,-0.0069427490234375,-0.12298583984375
1715194784981907700,3.88790771484375,-0.993438720703125,-0.0086212158203125,-0.1244049072265625
1715194784991981600,3.897981689453125,-0.989349365234375,-0.0091400146484375,-0.1261444091796875
1715194785002055700,3.9080556640625,-0.989593505859375,-0.008270263671875,-0.1275634765625
1715194785012129500,3.918129638671875,-0.991180419921875,-0.0083770751953125,-0.125518798828125
1715194785022204700,3.92820458984375,-0.9919891357421875,-0.0086822509765625,-0.125213623046875
1715194785032279600,3.938279541015625,-0.990966796875,-0.0073089599609375,-0.124847412109375
1715194785042353400,3.948353515625,-0.9906005859375,-0.00677490234375,-0.1238861083984375
1715194785052427500,3.958427490234375,-0.9922637939453125,-0.008544921875,-0.1259002685546875
1715194785062502400,3.96850244140625,-0.9908599853515625,-0.008575439453125,-0.12615966796875
1715194785072576500,3.978576416015625,-0.9918212890625,-0.0072174072265625,-0.12493896484375
1715194785082650400,3.988650390625,-0.99066162109375,-0.0081329345703125,-0.12628173828125
1715194785092724500,3.998724365234375,-0.991119384765625,-0.008209228515625,-0.1258544921875
1715194785102799400,4.00879931640625,-0.9920501708984375,-0.0085296630859375,-0.12640380859375
1715194785112873500,4.01887353515625,-0.9924774169921875,-0.008941650390625,-0.125152587890625
1715194785122947300,4.028947265625,-0.99151611328125,-0.0084228515625,-0.1263427734375
1715194785133021400,4.039021484375,-0.9912567138671875,-0.008087158203125,-0.1251068115234375
1715194785143096300,4.049096435546875,-0.9922943115234375,-0.0078277587890625,-0.1248016357421875
1715194785153170400,4.05917041015625,-0.99053955078125,-0.0088348388671875,-0.1253814697265625
1715194785163244500,4.06924462890625,-0.99114990234375,-0.008819580078125,-0.126556396484375
1715194785173319400,4.0793193359375,-0.9911346435546875,-0.008026123046875,-0.1266937255859375
1715194785183393500,4.0893935546875,-0.9920501708984375,-0.0086822509765625,-0.1245269775390625
1715194785193467400,4.09946728515625,-0.992095947265625,-0.0078277587890625,-0.1242828369140625
1715194785203541500,4.10954150390625,-0.991424560546875,-0.0087127685546875,-0.124298095703125
1715194785213616400,4.119616455078125,-0.9897918701171875,-0.0076751708984375,-0.1266632080078125
1715194785223690500,4.1296904296875,-0.9900665283203125,-0.00823974609375,-0.124481201171875
1715194785233764400,4.139764404296875,-0.9915008544921875,-0.0077667236328125,-0.124359130859375
1715194785243838500,4.14983837890625,-0.9908447265625,-0.0077056884765625,-0.125
1715194785253913300,4.159913330078125,-0.9910125732421875,-0.0076446533203125,-0.12579345703125
1715194785263987500,4.169987548828125,-0.99224853515625,-0.00799560546875,-0.125732421875
1715194785274061600,4.1800615234375,-0.9904327392578125,-0.00885009765625,-0.124755859375
1715194785284135400,4.190135498046875,-0.9911956787109375,-0.0083160400390625,-0.1272430419921875
1715194785294210600,4.20021044921875,-0.99169921875,-0.0059356689453125,-0.124420166015625
1715194785304284400,4.210284423828125,-0.9922943115234375,-0.008636474609375,-0.123809814453125
1715194785314358500,4.220358642578125,-0.9908599853515625,-0.0087432861328125,-0.1253204345703125
1715194785324432400,4.230432373046875,-0.989593505859375,-0.0074920654296875,-0.1251220703125
1715194785334507500,4.240507568359375,-0.9911651611328125,-0.007965087890625,-0.123748779296875
1715194785344581400,4.250581298828125,-0.99053955078125,-0.00762939453125,-0.12420654296875
1715194785354655500,4.260655517578125,-0.99273681640625,-0.0081024169921875,-0.1242218017578125
1715194785364729300,4.270729248046875,-0.99169921875,-0.0091094970703125,-0.124542236328125
1715194785374804500,4.280804443359375,-0.99072265625,-0.007598876953125,-0.124603271484375
1715194785384878300,4.29087841796875,-0.9916229248046875,-0.006011962890625,-0.124664306640625
1715194785394952400,4.300952392578125,-0.9917449951171875,-0.00897216796875,-0.1249237060546875
1715194785405026600,4.311026611328125,-0.993072509765625,-0.008148193359375,-0.1237030029296875
1715194785415101400,4.321101318359375,-0.9910736083984375,-0.00762939453125,-0.1252593994140625
1715194785425175600,4.331175537109375,-0.9916839599609375,-0.0096893310546875,-0.1259765625
1715194785435249700,4.341249755859375,-0.9908599853515625,-0.006805419921875,-0.123046875
1715194785445324500,4.351324462890625,-0.9925537109375,-0.0064239501953125,-0.12396240234375
1715194785455398700,4.361398681640625,-0.9925384521484375,-0.0086517333984375,-0.1236724853515625
1715194785465472500,4.371472412109375,-0.989776611328125,-0.0077972412109375,-0.1252288818359375
1715194785475546400,4.38154638671875,-0.990936279296875,-0.0069427490234375,-0.125335693359375
1715194785485621500,4.39162158203125,-0.991180419921875,-0.008758544921875,-0.124542236328125
1715194785495695400,4.4016953125,-0.9921875,-0.009490966796875,-0.123931884765625
1715194785505769500,4.41176953125,-0.9915008544921875,-0.007720947265625,-0.1223907470703125
1715194785515843300,4.42184326171875,-0.990570068359375,-0.007080078125,-0.1252593994140625
1715194785525918500,4.43191845703125,-0.9916229248046875,-0.00653076171875,-0.124237060546875
1715194785535992300,4.441992431640625,-0.991729736328125,-0.0084991455078125,-0.1226959228515625
1715194785546066400,4.45206640625,-0.9905853271484375,-0.0078277587890625,-0.1241912841796875
1715194785556140500,4.462140625,-0.9901123046875,-0.0076446533203125,-0.12518310546875
1715194785566215400,4.47221533203125,-0.990081787109375,-0.0086212158203125,-0.1238861083984375
1715194785576289500,4.48228955078125,-0.991241455078125,-0.0068359375,-0.1247406005859375
1715194785586363600,4.49236376953125,-0.991241455078125,-0.0071258544921875,-0.124969482421875
1715194785596437500,4.5024375,-0.98822021484375,-0.007171630859375,-0.124755859375
1715194785606512600,4.5125126953125,-0.991729736328125,-0.00830078125,-0.1264495849609375
1715194785616586500,4.52258642578125,-0.9913177490234375,-0.007598876953125,-0.1258697509765625
1715194785626660400,4.532660400390625,-0.9914703369140625,-0.0081329345703125,-0.125274658203125
1715194785636734500,4.542734375,-0.9920501708984375,-0.008697509765625,-0.1246185302734375
1715194785646809300,4.552809326171875,-0.9912567138671875,-0.0067596435546875,-0.1237030029296875
1715194785656883500,4.562883544921875,-0.990234375,-0.0074310302734375,-0.12445068359375
1715194785666957300,4.572957275390625,-0.99041748046875,-0.0081787109375,-0.1238250732421875
1715194785677031400,4.583031494140625,-0.9901275634765625,-0.0070953369140625,-0.125457763671875
1715194785687106300,4.593106201171875,-0.9907379150390625,-0.0072021484375,-0.124603271484375
1715194785697180400,4.603180419921875,-0.9902496337890625,-0.006927490234375,-0.124237060546875
1715194785707254500,4.613254638671875,-0.9911041259765625,-0.0092315673828125,-0.12420654296875
1715194785717328600,4.62332861328125,-0.992095947265625,-0.0062713623046875,-0.124603271484375
1715194785727403500,4.633403564453125,-0.9922332763671875,-0.00726318359375,-0.126220703125
1715194785737477600,4.6434775390625,-0.9906158447265625,-0.007659912109375,-0.124114990234375
1715194785747551500,4.653551513671875,-0.99249267578125,-0.007781982421875,-0.12384033203125
1715194785757625300,4.663625244140625,-0.990478515625,-0.0081939697265625,-0.1254119873046875
1715194785767700500,4.673700439453125,-0.9912872314453125,-0.00836181640625,-0.124908447265625
1715194785777774300,4.6837744140625,-0.9910430908203125,-0.0079803466796875,-0.127593994140625
1715194785787848400,4.693848388671875,-0.9920196533203125,-0.0069122314453125,-0.125762939453125
1715194785797923600,4.703923583984375,-0.9903564453125,-0.008514404296875,-0.124969482421875
1715194785807997400,4.71399755859375,-0.98931884765625,-0.0084686279296875,-0.124786376953125
1715194785818071300,4.7240712890625,-0.9922027587890625,-0.0080413818359375,-0.1260528564453125
1715194785828145400,4.7341455078125,-0.991790771484375,-0.0075836181640625,-0.126678466796875
1715194785838220300,4.74422021484375,-0.9922943115234375,-0.0082244873046875,-0.124267578125
1715194785848294400,4.75429443359375,-0.99212646484375,-0.0073699951171875,-0.1257171630859375
1715194785858368500,4.764368408203125,-0.9901885986328125,-0.0070648193359375,-0.126007080078125
1715194785868442600,4.774442626953125,-0.9914398193359375,-0.00787353515625,-0.1252288818359375
1715194785878517500,4.784517578125,-0.9913482666015625,-0.0092926025390625,-0.122772216796875
1715194785888591600,4.794591552734375,-0.991424560546875,-0.00811767578125,-0.122894287109375
1715194785898665500,4.80466552734375,-0.991607666015625,-0.0064849853515625,-0.1247100830078125
1715194785908739600,4.814739501953125,-0.990020751953125,-0.0075225830078125,-0.122650146484375
1715194785918814500,4.824814453125,-0.9914093017578125,-0.0081329345703125,-0.12451171875
1715194785928888600,4.834888671875,-0.99017333984375,-0.0080413818359375,-0.1237030029296875
1715194785938962400,4.84496240234375,-0.990814208984375,-0.0078125,-0.1242218017578125
1715194785949036300,4.855036376953125,-0.99041748046875,-0.0078582763671875,-0.12451171875
1715194785959111400,4.865111328125,-0.9892120361328125,-0.007720947265625,-0.1250762939453125
1715194785969185300,4.875185302734375,-0.9912109375,-0.0084228515625,-0.124542236328125
1715194785979259400,4.88525927734375,-0.9906005859375,-0.00811767578125,-0.1240234375
1715194785989333500,4.89533349609375,-0.9915618896484375,-0.008270263671875,-0.1247711181640625
1715194785999408400,4.905408447265625,-0.9922027587890625,-0.0078582763671875,-0.1270904541015625
1715194786009482500,4.915482421875,-0.990753173828125,-0.006561279296875,-0.1240234375
1715194786019556600,4.925556640625,-0.9906005859375,-0.0079498291015625,-0.125396728515625
1715194786029629700,4.935629638671875,-0.9911041259765625,-0.0091552734375,-0.123992919921875
1715194786039704800,4.945704833984375,-0.9924774169921875,-0.00750732421875,-0.122039794921875
1715194786049779000,4.955779052734375,-0.9915771484375,-0.0082244873046875,-0.1214141845703125
1715194786059852800,4.965852783203125,-0.9892730712890625,-0.0071868896484375,-0.1241455078125
1715194786069926700,4.9759267578125,-0.98907470703125,-0.008819580078125,-0.1241912841796875
1715194786080001800,4.986001708984375,-0.9935302734375,-0.008514404296875,-0.1229095458984375
1715194786090075600,4.99607568359375,-0.99176025390625,-0.0082550048828125,-0.1259307861328125
1715194786100149800,5.006149658203125,-0.988250732421875,-0.0083770751953125,-0.1261749267578125
1715194786110224000,5.016223876953125,-0.992218017578125,-0.006866455078125,-0.122650146484375
1715194786120298800,5.026298828125,-0.992919921875,-0.0086822509765625,-0.126007080078125
1715194786130372900,5.036372802734375,-0.98944091796875,-0.0078582763671875,-0.123321533203125
1715194786140447000,5.046447021484375,-0.9895477294921875,-0.0056610107421875,-0.1243438720703125
1715194786150520800,5.056520751953125,-0.990509033203125,-0.009124755859375,-0.1251220703125
1715194786160596000,5.066595947265625,-0.9914703369140625,-0.0085601806640625,-0.1249237060546875
1715194786170669800,5.076669921875,-0.991302490234375,-0.0062103271484375,-0.12493896484375
1715194786180744000,5.086743896484375,-0.9925994873046875,-0.0073394775390625,-0.1259765625
1715194786190817800,5.09681787109375,-0.9901580810546875,-0.0077362060546875,-0.12628173828125
1715194786200893000,5.106892822265625,-0.9895477294921875,-0.0073699951171875,-0.124542236328125
1715194786210966800,5.116966796875,-0.9919281005859375,-0.0063018798828125,-0.1252899169921875
1715194786221040600,5.12704052734375,-0.9900054931640625,-0.007171630859375,-0.1242218017578125
1715194786231115800,5.13711572265625,-0.9893341064453125,-0.007080078125,-0.1238250732421875
1715194786241189600,5.147189697265625,-0.991058349609375,-0.0074310302734375,-0.1245269775390625
1715194786251263700,5.157263671875,-0.9917144775390625,-0.0079498291015625,-0.1241302490234375
1715194786261337900,5.167337890625,-0.991455078125,-0.0076751708984375,-0.1242523193359375
1715194786271412700,5.177412841796875,-0.992950439453125,-0.007415771484375,-0.124420166015625
1715194786281486800,5.18748681640625,-0.992828369140625,-0.0074615478515625,-0.1251220703125
1715194786291561000,5.19756103515625,-0.9916229248046875,-0.0078887939453125,-0.125
1715194786301634800,5.207634765625,-0.9911346435546875,-0.006866455078125,-0.1241302490234375
1715194786311710000,5.2177099609375,-0.99078369140625,-0.0081634521484375,-0.12493896484375
1715194786321783800,5.22778369140625,-0.989654541015625,-0.0090484619140625,-0.1255035400390625
1715194786331858000,5.23785791015625,-0.99029541015625,-0.0073699951171875,-0.1257171630859375
1715194786341931800,5.247931884765625,-0.9908599853515625,-0.0087127685546875,-0.1248321533203125
1715194786352007000,5.2580068359375,-0.991241455078125,-0.007904052734375,-0.1237335205078125
1715194786362080800,5.268080810546875,-0.9913482666015625,-0.00860595703125,-0.124603271484375
1715194786372154600,5.278154541015625,-0.991363525390625,-0.0087738037109375,-0.1250457763671875
1715194786382228700,5.288228759765625,-0.9912567138671875,-0.007659912109375,-0.1263885498046875
1715194786392303900,5.298303955078125,-0.989898681640625,-0.0070343017578125,-0.1248321533203125
1715194786402377700,5.308377685546875,-0.9900360107421875,-0.00775146484375,-0.1246337890625
1715194786412451800,5.318451904296875,-0.990966796875,-0.0079498291015625,-0.1240234375
1715194786422526000,5.32852587890625,-0.9913177490234375,-0.00823974609375,-0.1241302490234375
1715194786432600800,5.338600830078125,-0.9903106689453125,-0.0086212158203125,-0.1240692138671875
1715194786442675000,5.348675048828125,-0.9912567138671875,-0.008209228515625,-0.124298095703125
1715194786452748800,5.358748779296875,-0.9911041259765625,-0.0064697265625,-0.123687744140625
1715194786462823000,5.368822998046875,-0.98992919921875,-0.00689697265625,-0.123382568359375
1715194786472897800,5.378897705078125,-0.9920196533203125,-0.009033203125,-0.1240234375
1715194786482972000,5.388971923828125,-0.9903411865234375,-0.0070648193359375,-0.1259918212890625
1715194786493045800,5.399045654296875,-0.991485595703125,-0.0070953369140625,-0.1250457763671875
1715194786503119600,5.40911962890625,-0.9915008544921875,-0.0061492919921875,-0.124359130859375
1715194786513194800,5.41919482421875,-0.991729736328125,-0.008148193359375,-0.1246795654296875
1715194786523268900,5.429268798828125,-0.9908905029296875,-0.007965087890625,-0.1245269775390625
1715194786533342700,5.4393427734375,-0.98974609375,-0.0081329345703125,-0.123199462890625
1715194786543416800,5.449416748046875,-0.99066162109375,-0.0089111328125,-0.12652587890625
1715194786553491700,5.45949169921875,-0.9913330078125,-0.008270263671875,-0.1240386962890625
1715194786563565800,5.46956591796875,-0.991424560546875,-0.0072479248046875,-0.125457763671875
1715194786573640000,5.479639892578125,-0.9895782470703125,-0.0075225830078125,-0.1248931884765625
1715194786583713800,5.4897138671875,-0.9896392822265625,-0.0072021484375,-0.1238861083984375
1715194786593789000,5.499788818359375,-0.9922332763671875,-0.0084075927734375,-0.1230316162109375
1715194786603862800,5.50986279296875,-0.990997314453125,-0.0084228515625,-0.12420654296875
1715194786613937000,5.51993701171875,-0.9907073974609375,-0.0075531005859375,-0.1255035400390625
1715194786624010800,5.5300107421875,-0.992279052734375,-0.0068817138671875,-0.1239776611328125
1715194786634086000,5.5400859375,-0.990936279296875,-0.008392333984375,-0.1223297119140625
1715194786644159700,5.55015966796875,-0.99151611328125,-0.0074005126953125,-0.12432861328125
1715194786654233900,5.56023388671875,-0.99066162109375,-0.00823974609375,-0.12542724609375
1715194786664307700,5.5703076171875,-0.9905242919921875,-0.0079498291015625,-0.1236572265625
1715194786674382800,5.5803828125,-0.9909820556640625,-0.007568359375,-0.1260528564453125
1715194786684456700,5.590456787109375,-0.9925689697265625,-0.00604248046875,-0.12457275390625
1715194786694530800,5.60053076171875,-0.9934844970703125,-0.008270263671875,-0.1229400634765625
1715194786704605000,5.61060498046875,-0.991546630859375,-0.0070037841796875,-0.124267578125
1715194786714679800,5.6206796875,-0.99102783203125,-0.007843017578125,-0.1243133544921875
1715194786724754000,5.63075390625,-0.9910888671875,-0.00811767578125,-0.1246337890625
1715194786734827800,5.640827880859375,-0.99139404296875,-0.00726318359375,-0.1248779296875
1715194786744902000,5.65090185546875,-0.99066162109375,-0.007843017578125,-0.1240997314453125
1715194786754976800,5.660976806640625,-0.9903564453125,-0.0077362060546875,-0.124725341796875
1715194786765051000,5.67105078125,-0.9904022216796875,-0.0070953369140625,-0.126007080078125
1715194786775124700,5.681124755859375,-0.990203857421875,-0.006378173828125,-0.1252593994140625
1715194786785198800,5.69119873046875,-0.9924163818359375,-0.0087127685546875,-0.123199462890625
1715194786795273700,5.701273681640625,-0.99176025390625,-0.008026123046875,-0.124969482421875
1715194786805347800,5.711347900390625,-0.990570068359375,-0.009002685546875,-0.1235809326171875
1715194786815421700,5.721421630859375,-0.9909515380859375,-0.0077972412109375,-0.1234130859375
1715194786825495800,5.731495849609375,-0.9914093017578125,-0.007598876953125,-0.126007080078125
1715194786835570700,5.74157080078125,-0.9912567138671875,-0.0076141357421875,-0.124969482421875
1715194786845644800,5.751644775390625,-0.991180419921875,-0.006622314453125,-0.1253509521484375
1715194786855719000,5.761718994140625,-0.9907989501953125,-0.0093994140625,-0.1251373291015625
1715194786865792800,5.771792724609375,-0.99188232421875,-0.0086822509765625,-0.1230316162109375
1715194786875868000,5.781867919921875,-0.9921112060546875,-0.0076141357421875,-0.1230010986328125
1715194786885941800,5.791941650390625,-0.9909515380859375,-0.00775146484375,-0.1268768310546875
1715194786896016000,5.802015869140625,-0.99224853515625,-0.0072479248046875,-0.126861572265625
1715194786906089700,5.81208984375,-0.993194580078125,-0.0083160400390625,-0.1243438720703125
1715194786916164900,5.822164794921875,-0.990966796875,-0.0067596435546875,-0.12396240234375
1715194786926238700,5.83223876953125,-0.9915008544921875,-0.007781982421875,-0.1246795654296875
1715194786936312800,5.842312744140625,-0.9918365478515625,-0.0077056884765625,-0.1222076416015625
1715194786946386700,5.85238671875,-0.9921875,-0.0078125,-0.1236114501953125
1715194786956461800,5.8624619140625,-0.989471435546875,-0.0079345703125,-0.1226348876953125
1715194786966535700,5.87253564453125,-0.9897308349609375,-0.00799560546875,-0.1245574951171875
1715194786976609800,5.88260986328125,-0.9912567138671875,-0.0075836181640625,-0.1235504150390625
1715194786986684000,5.892683837890625,-0.989532470703125,-0.008392333984375,-0.124603271484375
1715194786996759000,5.902759033203125,-0.9891510009765625,-0.0079803466796875,-0.12493896484375
1715194787006833000,5.9128330078125,-0.989654541015625,-0.00726318359375,-0.1245269775390625
1715194787016906800,5.92290673828125,-0.990509033203125,-0.00823974609375,-0.1245574951171875
1715194787026980900,5.93298095703125,-0.9914703369140625,-0.0082244873046875,-0.12518310546875
1715194787037056000,5.943055908203125,-0.9907989501953125,-0.0078277587890625,-0.1253814697265625
1715194787047130000,5.953130126953125,-0.9907379150390625,-0.008026123046875,-0.1241912841796875
1715194787057204000,5.963203857421875,-0.99066162109375,-0.0074310302734375,-0.125396728515625
1715194787067279000,5.973279052734375,-0.991851806640625,-0.007598876953125,-0.1245269775390625
1715194787077353000,5.98335302734375,-0.9919891357421875,-0.007568359375,-0.125030517578125
1715194787087426800,5.9934267578125,-0.9912261962890625,-0.007659912109375,-0.1252593994140625
1715194787097501000,6.0035009765625,-0.99212646484375,-0.0069580078125,-0.1226959228515625
1715194787107575800,6.013575927734375,-0.9920654296875,-0.006561279296875,-0.1231689453125
1715194787117650000,6.02364990234375,-0.9907073974609375,-0.0070037841796875,-0.1269989013671875
1715194787127724000,6.03372412109375,-0.9901275634765625,-0.00921630859375,-0.1245269775390625
1715194787137798100,6.043798095703125,-0.9934844970703125,-0.0070648193359375,-0.1241302490234375
1715194787147873000,6.053873046875,-0.99310302734375,-0.0066986083984375,-0.1255645751953125
1715194787157947100,6.063947021484375,-0.9900665283203125,-0.0072021484375,-0.127838134765625
1715194787168021000,6.07402099609375,-0.99005126953125,-0.00823974609375,-0.123931884765625
1715194787178095000,6.08409521484375,-0.991058349609375,-0.0073699951171875,-0.122100830078125
1715194787188170000,6.094169921875,-0.99102783203125,-0.0091400146484375,-0.1222381591796875
1715194787198244000,6.104244140625,-0.991851806640625,-0.0076751708984375,-0.1236572265625
1715194787208318000,6.11431787109375,-0.9921112060546875,-0.0074462890625,-0.1251373291015625
1715194787218391800,6.124391845703125,-0.9921417236328125,-0.0071258544921875,-0.12396240234375
1715194787228467000,6.134467041015625,-0.9910736083984375,-0.007781982421875,-0.1242218017578125
1715194787238540800,6.144540771484375,-0.9906005859375,-0.006866455078125,-0.1255035400390625
1715194787248615000,6.154614990234375,-0.9910736083984375,-0.0077667236328125,-0.1237640380859375
1715194787258689000,6.16468896484375,-0.9917144775390625,-0.007232666015625,-0.12445068359375
1715194787268764000,6.174763916015625,-0.9912109375,-0.0070037841796875,-0.124237060546875
1715194787278838000,6.184838134765625,-0.9904632568359375,-0.006744384765625,-0.1249847412109375
1715194787288912100,6.194912109375,-0.9902496337890625,-0.007080078125,-0.12603759765625
1715194787298986000,6.204986083984375,-0.9901580810546875,-0.008758544921875,-0.122894287109375
1715194787309061000,6.21506103515625,-0.9926605224609375,-0.0065765380859375,-0.1249847412109375
1715194787319135000,6.225135009765625,-0.99249267578125,-0.00823974609375,-0.1227264404296875
1715194787329209000,6.235208984375,-0.9914093017578125,-0.0078887939453125,-0.124267578125
1715194787339283000,6.245282958984375,-0.9908294677734375,-0.007537841796875,-0.1247406005859375
1715194787349358000,6.255358154296875,-0.9912109375,-0.0072784423828125,-0.1239166259765625
1715194787359432000,6.265431884765625,-0.9905242919921875,-0.0075836181640625,-0.12347412109375
1715194787369505800,6.275505859375,-0.9920654296875,-0.008056640625,-0.1248321533203125
1715194787379580000,6.285579833984375,-0.9907073974609375,-0.0084381103515625,-0.1239166259765625
1715194787389654800,6.29565478515625,-0.99151611328125,-0.00738525390625,-0.1244659423828125
1715194787399729000,6.30572900390625,-0.993438720703125,-0.0071563720703125,-0.123138427734375
1715194787409803000,6.315802978515625,-0.992706298828125,-0.00750732421875,-0.124176025390625
1715194787419877000,6.325877197265625,-0.991790771484375,-0.007598876953125,-0.124114990234375
1715194787429952000,6.335951904296875,-0.99127197265625,-0.007293701171875,-0.1245269775390625
1715194787440026000,6.346026123046875,-0.9925079345703125,-0.007568359375,-0.125213623046875
1715194787450100000,6.356099853515625,-0.9911651611328125,-0.0088653564453125,-0.12457275390625
1715194787460174000,6.366174072265625,-0.9891815185546875,-0.0069732666015625,-0.12396240234375
1715194787470249000,6.3762490234375,-0.9907684326171875,-0.00616455078125,-0.12335205078125
1715194787480323000,6.386322998046875,-0.9907379150390625,-0.00726318359375,-0.1234893798828125
1715194787490397000,6.39639697265625,-0.9897918701171875,-0.0088043212890625,-0.1227874755859375
1715194787500470800,6.406470703125,-0.9911041259765625,-0.00738525390625,-0.1223907470703125
1715194787510546000,6.4165458984375,-0.9912109375,-0.006805419921875,-0.122528076171875
1715194787520620000,6.4266201171875,-0.9923858642578125,-0.0068511962890625,-0.12396240234375
1715194787530694000,6.43669384765625,-0.9908599853515625,-0.0075225830078125,-0.12567138671875
1715194787540768000,6.44676806640625,-0.99212646484375,-0.008697509765625,-0.124298095703125
1715194787550843000,6.4568427734375,-0.990142822265625,-0.0078125,-0.124420166015625
1715194787560917000,6.4669169921875,-0.9910736083984375,-0.0084075927734375,-0.1269073486328125
1715194787570991000,6.4769912109375,-0.9922637939453125,-0.007843017578125,-0.1251983642578125
1715194787581065000,6.48706494140625,-0.9902801513671875,-0.007080078125,-0.12335205078125
1715194787591140000,6.49714013671875,-0.9913787841796875,-0.0059967041015625,-0.123321533203125
1715194787601214000,6.5072138671875,-0.990814208984375,-0.0078125,-0.12371826171875
1715194787611288000,6.5172880859375,-0.9920501708984375,-0.00762939453125,-0.12335205078125
1715194787621362000,6.52736181640625,-0.9918670654296875,-0.0091552734375,-0.1236724853515625
1715194787631437000,6.53743701171875,-0.9916229248046875,-0.007965087890625,-0.124298095703125
1715194787641511000,6.547510986328125,-0.9926910400390625,-0.008026123046875,-0.123748779296875
1715194787651585000,6.5575849609375,-0.9918212890625,-0.0073699951171875,-0.1239166259765625
1715194787661659000,6.567658935546875,-0.9922027587890625,-0.0084228515625,-0.121917724609375
1715194787671734000,6.577734130859375,-0.991943359375,-0.008056640625,-0.12420654296875
1715194787681808000,6.587807861328125,-0.990325927734375,-0.008087158203125,-0.125091552734375
1715194787691882000,6.597882080078125,-0.9893798828125,-0.0086212158203125,-0.12420654296875
1715194787701956000,6.6079560546875,-0.9897918701171875,-0.006927490234375,-0.1238250732421875
1715194787712031000,6.618031005859375,-0.9904937744140625,-0.0069732666015625,-0.1237335205078125
1715194787722105000,6.62810498046875,-0.9904022216796875,-0.0070648193359375,-0.12457275390625
1715194787732179000,6.638178955078125,-0.9912261962890625,-0.0074462890625,-0.1224822998046875
1715194787742253000,6.648253173828125,-0.9904632568359375,-0.007293701171875,-0.12298583984375
1715194787752328000,6.658327880859375,-0.9905242919921875,-0.0066070556640625,-0.1248931884765625
1715194787762402000,6.668402099609375,-0.99066162109375,-0.0081634521484375,-0.1247711181640625
1715194787772476000,6.678475830078125,-0.9904327392578125,-0.007415771484375,-0.12213134765625
1715194787782551000,6.688551025390625,-0.9909820556640625,-0.0086822509765625,-0.124664306640625
1715194787792625000,6.698625,-0.9909820556640625,-0.0072784423828125,-0.124481201171875
1715194787802699000,6.708698974609375,-0.991058349609375,-0.007232666015625,-0.123748779296875
1715194787812772900,6.71877294921875,-0.9898834228515625,-0.0067901611328125,-0.1243896484375
1715194787822848000,6.728847900390625,-0.9908294677734375,-0.006561279296875,-0.122833251953125
1715194787832921900,6.738921875,-0.991607666015625,-0.007537841796875,-0.12408447265625
1715194787842996000,6.748995849609375,-0.9916534423828125,-0.0062103271484375,-0.1238250732421875
1715194787853070000,6.759070068359375,-0.9915771484375,-0.00714111328125,-0.1248016357421875
1715194787863145000,6.76914501953125,-0.9900054931640625,-0.007781982421875,-0.123260498046875
1715194787873219000,6.779218994140625,-0.991973876953125,-0.0083465576171875,-0.1241455078125
1715194787883293000,6.78929296875,-0.991790771484375,-0.0074310302734375,-0.1225128173828125
1715194787893367000,6.799366943359375,-0.990234375,-0.007537841796875,-0.12213134765625
1715194787903442000,6.80944189453125,-0.990631103515625,-0.007171630859375,-0.12255859375
1715194787913516000,6.81951611328125,-0.9917144775390625,-0.00836181640625,-0.1251220703125
1715194787923590000,6.82958984375,-0.9906158447265625,-0.00885009765625,-0.124267578125
1715194787933664000,6.8396640625,-0.991912841796875,-0.00714111328125,-0.12457275390625
1715194787943739000,6.84973876953125,-0.9916534423828125,-0.0065765380859375,-0.123870849609375
1715194787953813000,6.85981298828125,-0.9923248291015625,-0.00701904296875,-0.122283935546875
1715194787963887000,6.86988720703125,-0.991851806640625,-0.006591796875,-0.1230621337890625
1715194787973961000,6.8799609375,-0.991302490234375,-0.0074615478515625,-0.12359619140625
1715194787984036000,6.8900361328125,-0.9928741455078125,-0.0065765380859375,-0.12359619140625
1715194787994110200,6.900110107421875,-0.9920196533203125,-0.008453369140625,-0.124298095703125
1715194788004184000,6.91018408203125,-0.9922332763671875,-0.0088043212890625,-0.1220245361328125
1715194788014258000,6.9202578125,-0.99359130859375,-0.0076904296875,-0.1240234375
1715194788024333000,6.9303330078125,-0.991302490234375,-0.007568359375,-0.1243743896484375
1715194788034406700,6.94040673828125,-0.9911041259765625,-0.0074462890625,-0.1243896484375
1715194788044480500,6.95048046875,-0.992828369140625,-0.008331298828125,-0.1233673095703125
1715194788054554600,6.9605546875,-0.9929656982421875,-0.0069122314453125,-0.1243438720703125
1715194788064629500,6.97062939453125,-0.991424560546875,-0.0078125,-0.1255035400390625
1715194788074703600,6.98070361328125,-0.991424560546875,-0.0082550048828125,-0.1253814697265625
1715194788084777500,6.990777587890625,-0.99072265625,-0.00714111328125,-0.123321533203125
1715194788094851800,7.000851806640625,-0.9920654296875,-0.006591796875,-0.12298583984375
1715194788104926500,7.010926513671875,-0.98974609375,-0.0067596435546875,-0.124176025390625
1715194788115000800,7.021000732421875,-0.991058349609375,-0.008392333984375,-0.124847412109375
1715194788125074700,7.03107470703125,-0.9920654296875,-0.0082550048828125,-0.12469482421875
1715194788135148500,7.0411484375,-0.99151611328125,-0.0067291259765625,-0.124420166015625
1715194788145223700,7.0512236328125,-0.99200439453125,-0.005523681640625,-0.125
1715194788155297500,7.061297607421875,-0.9909515380859375,-0.007781982421875,-0.1245880126953125
1715194788165371600,7.07137158203125,-0.9917449951171875,-0.006927490234375,-0.1256103515625
1715194788175445500,7.081445556640625,-0.99273681640625,-0.0068359375,-0.1246490478515625
1715194788185520600,7.091520751953125,-0.990447998046875,-0.0076904296875,-0.1248016357421875
1715194788195594500,7.101594482421875,-0.9906768798828125,-0.0082855224609375,-0.1240386962890625
1715194788205668600,7.111668701171875,-0.992950439453125,-0.0074615478515625,-0.1250457763671875
1715194788215742500,7.121742431640625,-0.991363525390625,-0.0079498291015625,-0.123138427734375
1715194788225817600,7.131817626953125,-0.99017333984375,-0.0088043212890625,-0.1244049072265625
1715194788235891500,7.141891357421875,-0.9893951416015625,-0.0090179443359375,-0.1229400634765625
1715194788245965800,7.1519658203125,-0.994293212890625,-0.0069427490234375,-0.124267578125
1715194788256039700,7.162039794921875,-0.9901275634765625,-0.008270263671875,-0.1275787353515625
1715194788266114800,7.17211474609375,-0.9908294677734375,-0.006591796875,-0.12548828125
1715194788276188700,7.182188720703125,-0.9915008544921875,-0.0070953369140625,-0.12298583984375
1715194788286262500,7.192262451171875,-0.993255615234375,-0.0074920654296875,-0.123199462890625
1715194788296336600,7.202336669921875,-0.9906005859375,-0.0070037841796875,-0.1231842041015625
1715194788306411500,7.21241162109375,-0.9887847900390625,-0.01025390625,-0.1240997314453125
1715194788316485600,7.222485595703125,-0.99261474609375,-0.008575439453125,-0.1253509521484375
1715194788326559500,7.2325595703125,-0.9913482666015625,-0.008148193359375,-0.12371826171875
1715194788336633600,7.242633544921875,-0.9893341064453125,-0.0077667236328125,-0.1255035400390625
1715194788346708500,7.25270849609375,-0.9909820556640625,-0.0074310302734375,-0.124359130859375
1715194788356782600,7.262782470703125,-0.991729736328125,-0.00909423828125,-0.1231689453125
1715194788366856400,7.2728564453125,-0.99029541015625,-0.007354736328125,-0.1241302490234375
1715194788376930800,7.282930908203125,-0.990875244140625,-0.0073699951171875,-0.1230316162109375
1715194788387005400,7.29300537109375,-0.99114990234375,-0.0076141357421875,-0.120849609375
1715194788397079800,7.303079833984375,-0.992218017578125,-0.00860595703125,-0.12322998046875
1715194788407153700,7.313153564453125,-0.9923858642578125,-0.00726318359375,-0.125457763671875
1715194788417228800,7.323228759765625,-0.9920654296875,-0.0068817138671875,-0.1235809326171875
1715194788427302700,7.333302734375,-0.9906463623046875,-0.006378173828125,-0.12432861328125
1715194788437376500,7.34337646484375,-0.9905853271484375,-0.0064544677734375,-0.1246337890625
1715194788447450600,7.35345068359375,-0.9929656982421875,-0.0084991455078125,-0.1241302490234375
1715194788457525800,7.36352587890625,-0.9921875,-0.007293701171875,-0.1245269775390625
1715194788467599600,7.373599609375,-0.9917449951171875,-0.0081787109375,-0.12530517578125
1715194788477673500,7.383673583984375,-0.98974609375,-0.00799560546875,-0.1238250732421875
1715194788487747600,7.39374755859375,-0.9900970458984375,-0.0066375732421875,-0.123779296875
1715194788497822500,7.403822509765625,-0.991180419921875,-0.0081939697265625,-0.125152587890625
1715194788507896600,7.413896484375,-0.99176025390625,-0.006744384765625,-0.124603271484375
1715194788517970700,7.423970703125,-0.992156982421875,-0.00762939453125,-0.1233978271484375
1715194788528044800,7.434044921875,-0.9904632568359375,-0.007232666015625,-0.12310791015625
1715194788538119700,7.44411962890625,-0.9912872314453125,-0.0074462890625,-0.1242218017578125
1715194788548193800,7.45419384765625,-0.99102783203125,-0.007781982421875,-0.1244964599609375
1715194788558267600,7.464267578125,-0.991363525390625,-0.007781982421875,-0.126251220703125
1715194788568341800,7.474341796875,-0.9919586181640625,-0.0089874267578125,-0.1235504150390625
1715194788578416600,7.484416748046875,-0.9908905029296875,-0.0091705322265625,-0.1256103515625
1715194788588490800,7.49449072265625,-0.9927215576171875,-0.007843017578125,-0.1237945556640625
1715194788598564600,7.504564697265625,-0.990814208984375,-0.0068511962890625,-0.1226654052734375
1715194788608638500,7.514638427734375,-0.990814208984375,-0.0065765380859375,-0.123687744140625
1715194788618713600,7.524713623046875,-0.9932861328125,-0.006988525390625,-0.124298095703125
1715194788628787500,7.534787353515625,-0.990753173828125,-0.0059967041015625,-0.1241912841796875
1715194788638861600,7.544861572265625,-0.99090576171875,-0.00714111328125,-0.125579833984375
1715194788648935700,7.554935791015625,-0.992462158203125,-0.0074005126953125,-0.1237030029296875
1715194788659010600,7.565010498046875,-0.9921722412109375,-0.0066680908203125,-0.1239776611328125
1715194788669084700,7.575084716796875,-0.9920501708984375,-0.0080413818359375,-0.1250762939453125
1715194788679158800,7.58515869140625,-0.9916839599609375,-0.009521484375,-0.1239166259765625
1715194788689232600,7.595232666015625,-0.9910888671875,-0.0083770751953125,-0.123779296875
1715194788699307800,7.605307861328125,-0.9915008544921875,-0.007171630859375,-0.12371826171875
1715194788709381600,7.615381591796875,-0.990570068359375,-0.00592041015625,-0.1255950927734375
1715194788719455700,7.625455810546875,-0.9914703369140625,-0.0066070556640625,-0.12384033203125
1715194788729529600,7.635529541015625,-0.9915771484375,-0.0060272216796875,-0.125030517578125
1715194788739604700,7.645604736328125,-0.9908599853515625,-0.0084686279296875,-0.1231689453125
1715194788749678600,7.6556787109375,-0.9907684326171875,-0.0078125,-0.12225341796875
1715194788759752400,7.66575244140625,-0.9904937744140625,-0.007415771484375,-0.1237030029296875
1715194788769826600,7.67582666015625,-0.9912109375,-0.00628662109375,-0.1228485107421875
1715194788779901400,7.6859013671875,-0.9912567138671875,-0.0068511962890625,-0.1231231689453125
1715194788789975600,7.6959755859375,-0.991973876953125,-0.0074462890625,-0.1229400634765625
1715194788800049700,7.706049560546875,-0.9931182861328125,-0.0074615478515625,-0.1244354248046875
1715194788810123800,7.716123779296875,-0.99078369140625,-0.0069732666015625,-0.1246795654296875
1715194788820198700,7.72619873046875,-0.99249267578125,-0.006103515625,-0.124481201171875
1715194788830272800,7.736272705078125,-0.9908294677734375,-0.0076446533203125,-0.1233978271484375
1715194788840346600,7.7463466796875,-0.9888916015625,-0.007080078125,-0.123779296875
1715194788850420700,7.756420654296875,-0.9895172119140625,-0.007568359375,-0.1249542236328125
1715194788860495600,7.76649560546875,-0.9893646240234375,-0.007568359375,-0.123809814453125
1715194788870569700,7.77656982421875,-0.9926605224609375,-0.0062255859375,-0.124298095703125
1715194788880643600,7.7866435546875,-0.9910736083984375,-0.0076141357421875,-0.1242218017578125
1715194788890717400,7.796717529296875,-0.98992919921875,-0.008209228515625,-0.124969482421875
1715194788900792600,7.80679248046875,-0.9917144775390625,-0.0075836181640625,-0.1247406005859375
1715194788910866400,7.816866455078125,-0.9923095703125,-0.0083160400390625,-0.1239013671875
1715194788920940500,7.8269404296875,-0.99029541015625,-0.0075531005859375,-0.1231842041015625
1715194788931015700,7.837015625,-0.991119384765625,-0.007293701171875,-0.1230926513671875
1715194788941089500,7.847089599609375,-0.990081787109375,-0.008087158203125,-0.1222076416015625
1715194788951163600,7.85716357421875,-0.9902801513671875,-0.0064544677734375,-0.1242523193359375
1715194788961237800,7.86723779296875,-0.990814208984375,-0.0066375732421875,-0.1233367919921875
1715194788971312600,7.877312744140625,-0.9916839599609375,-0.007476806640625,-0.1233673095703125
1715194788981386800,7.88738671875,-0.99066162109375,-0.0072174072265625,-0.1232757568359375
1715194788991460600,7.897460693359375,-0.9923095703125,-0.00714111328125,-0.1228790283203125
1715194789001534700,7.90753466796875,-0.9905853271484375,-0.0084381103515625,-0.1229705810546875
1715194789011609600,7.917609619140625,-0.991058349609375,-0.0075225830078125,-0.122833251953125
1715194789021683700,7.92768359375,-0.9922637939453125,-0.0080108642578125,-0.1240234375
1715194789031758600,7.937758544921875,-0.991363525390625,-0.0084381103515625,-0.1258392333984375
1715194789041832700,7.947832763671875,-0.9907379150390625,-0.0065765380859375,-0.1243743896484375
1715194789051907600,7.957907470703125,-0.9915771484375,-0.0074005126953125,-0.121795654296875
1715194789061981700,7.967981689453125,-0.9908447265625,-0.0069580078125,-0.12445068359375
1715194789072055600,7.9780556640625,-0.9912567138671875,-0.0069122314453125,-0.123504638671875
1715194789082129400,7.98812939453125,-0.9915924072265625,-0.0076904296875,-0.125213623046875
1715194789092204500,7.99820458984375,-0.99127197265625,-0.00775146484375,-0.122955322265625
1715194789102278400,8.0082783203125,-0.992462158203125,-0.0062255859375,-0.123870849609375
1715194789112352500,8.0183525390625,-0.991668701171875,-0.0082550048828125,-0.1248931884765625
1715194789122426600,8.028426513671874,-0.9919891357421875,-0.0068206787109375,-0.1246490478515625
1715194789132501500,8.03850146484375,-0.991119384765625,-0.0071258544921875,-0.1256561279296875
1715194789142575600,8.04857568359375,-0.9904937744140625,-0.007293701171875,-0.124664306640625
1715194789152649700,8.058649658203125,-0.9923553466796875,-0.0076446533203125,-0.1230316162109375
1715194789162723600,8.0687236328125,-0.9918060302734375,-0.006439208984375,-0.124114990234375
1715194789172798700,8.078798828125,-0.9915771484375,-0.0058746337890625,-0.123931884765625
1715194789182872600,8.08887255859375,-0.991241455078125,-0.007904052734375,-0.1236724853515625
1715194789192946700,8.09894677734375,-0.991302490234375,-0.00732421875,-0.123748779296875
1715194789203020500,8.1090205078125,-0.991790771484375,-0.0064697265625,-0.1228179931640625
1715194789213095700,8.119095703125,-0.99053955078125,-0.0071258544921875,-0.122283935546875
1715194789223169500,8.12916943359375,-0.9906463623046875,-0.0082244873046875,-0.124298095703125
1715194789233243400,8.139243408203125,-0.9913330078125,-0.006805419921875,-0.125701904296875
1715194789243317500,8.1493173828125,-0.9906005859375,-0.005859375,-0.12408447265625
1715194789253392400,8.159392333984375,-0.9920654296875,-0.00714111328125,-0.12420654296875
1715194789263466500,8.169466552734375,-0.989959716796875,-0.007965087890625,-0.123016357421875
1715194789273540600,8.17954052734375,-0.9907684326171875,-0.0074310302734375,-0.1239776611328125
1715194789283614700,8.18961474609375,-0.99090576171875,-0.00799560546875,-0.1255340576171875
1715194789293689600,8.199689697265624,-0.9928131103515625,-0.0075531005859375,-0.123016357421875
1715194789303763700,8.209763671875,-0.9937744140625,-0.007080078125,-0.1248016357421875
1715194789313837600,8.219837646484375,-0.99151611328125,-0.0093841552734375,-0.12432861328125
1715194789323911700,8.22991162109375,-0.9890594482421875,-0.007720947265625,-0.1217041015625
1715194789333986600,8.239986572265625,-0.9934539794921875,-0.0077972412109375,-0.123199462890625
1715194789344060700,8.250060791015626,-0.9912261962890625,-0.006195068359375,-0.1245269775390625
1715194789354134500,8.260134521484375,-0.98797607421875,-0.0079345703125,-0.1255950927734375
1715194789364208400,8.27020849609375,-0.9887237548828125,-0.0066680908203125,-0.1259002685546875
1715194789374283500,8.280283447265624,-0.9921722412109375,-0.0077056884765625,-0.1237945556640625
1715194789384357600,8.290357666015625,-0.9910736083984375,-0.0089874267578125,-0.124237060546875
1715194789394431500,8.300431396484376,-0.9909210205078125,-0.008087158203125,-0.12457275390625
1715194789404505600,8.310505615234375,-0.9908294677734375,-0.0076751708984375,-0.1217193603515625
1715194789414580500,8.32058056640625,-0.9932861328125,-0.008453369140625,-0.12286376953125
1715194789424654600,8.330654541015624,-0.9928436279296875,-0.0074462890625,-0.12420654296875
1715194789434728700,8.340728759765625,-0.9907073974609375,-0.0063018798828125,-0.1246795654296875
1715194789444802600,8.350802490234376,-0.990264892578125,-0.005767822265625,-0.123779296875
1715194789454877700,8.360877685546875,-0.9910125732421875,-0.00726318359375,-0.1230010986328125
1715194789464951600,8.37095166015625,-0.991485595703125,-0.007720947265625,-0.123291015625
1715194789475025700,8.381025634765624,-0.9909210205078125,-0.0074310302734375,-0.124237060546875
1715194789485100500,8.3911005859375,-0.9907379150390625,-0.0072021484375,-0.121826171875
1715194789495174700,8.401174560546876,-0.9922027587890625,-0.007843017578125,-0.1227569580078125
1715194789505248500,8.41124853515625,-0.9907073974609375,-0.0065155029296875,-0.123809814453125
1715194789515322600,8.421322509765625,-0.991790771484375,-0.0081329345703125,-0.1254730224609375
1715194789525397500,8.4313974609375,-0.992431640625,-0.0066986083984375,-0.123565673828125
1715194789535471600,8.4414716796875,-0.9904937744140625,-0.0076446533203125,-0.123016357421875
1715194789545545500,8.45154541015625,-0.9910736083984375,-0.0068206787109375,-0.124847412109375
1715194789555619600,8.46161962890625,-0.990936279296875,-0.0070953369140625,-0.125518798828125
1715194789565694500,8.471694580078125,-0.990509033203125,-0.007720947265625,-0.123870849609375
1715194789575768600,8.4817685546875,-0.99249267578125,-0.007965087890625,-0.1235198974609375
1715194789585842700,8.4918427734375,-0.9911041259765625,-0.009368896484375,-0.125091552734375
1715194789595916500,8.50191650390625,-0.991668701171875,-0.007537841796875,-0.122955322265625
1715194789605991700,8.51199169921875,-0.9908447265625,-0.006622314453125,-0.1239166259765625
1715194789616065500,8.5220654296875,-0.99017333984375,-0.006683349609375,-0.124725341796875
1715194789626139600,8.5321396484375,-0.9901123046875,-0.008392333984375,-0.12347412109375
1715194789636213500,8.542213623046875,-0.9904327392578125,-0.0081939697265625,-0.1214752197265625
1715194789646288600,8.55228857421875,-0.99151611328125,-0.008544921875,-0.1248931884765625
1715194789656362500,8.562362548828125,-0.9891357421875,-0.00677490234375,-0.1251373291015625
1715194789666436600,8.5724365234375,-0.9905548095703125,-0.006744384765625,-0.1227569580078125
1715194789676510500,8.582510498046876,-0.9911956787109375,-0.0072021484375,-0.1238555908203125
1715194789686585600,8.592585693359375,-0.9917449951171875,-0.0081787109375,-0.1241455078125
1715194789696659500,8.602659423828126,-0.991455078125,-0.0076141357421875,-0.12200927734375
1715194789706733600,8.612733642578124,-0.991912841796875,-0.0078125,-0.1227264404296875
1715194789716807700,8.6228076171875,-0.99169921875,-0.0076751708984375,-0.123046875
1715194789726882600,8.632882568359374,-0.9903564453125,-0.006988525390625,-0.1235809326171875
1715194789736956700,8.642956787109375,-0.9894866943359375,-0.0072021484375,-0.123748779296875
1715194789747030500,8.653030517578125,-0.989959716796875,-0.008209228515625,-0.1230926513671875
1715194789757104600,8.663104736328124,-0.990570068359375,-0.0058135986328125,-0.1231231689453125
1715194789767179500,8.673179443359375,-0.9916229248046875,-0.0065460205078125,-0.1262664794921875
1715194789777253600,8.683253662109376,-0.9919891357421875,-0.00689697265625,-0.1241607666015625
1715194789787327500,8.693327392578125,-0.9908294677734375,-0.007720947265625,-0.1235504150390625
1715194789797401600,8.703401611328125,-0.9930572509765625,-0.0071868896484375,-0.1251220703125
1715194789807476500,8.7134765625,-0.9918670654296875,-0.0074615478515625,-0.12579345703125
1715194789817550600,8.723550537109375,-0.9906768798828125,-0.006927490234375,-0.1236114501953125
1715194789827624400,8.73362451171875,-0.990875244140625,-0.0070953369140625,-0.12237548828125
1715194789837698600,8.743698486328125,-0.9898681640625,-0.007415771484375,-0.1229705810546875
1715194789847773400,8.7537734375,-0.99176025390625,-0.007049560546875,-0.122894287109375
1715194789857847800,8.763847900390624,-0.990753173828125,-0.0070953369140625,-0.1245574951171875
1715194789867921700,8.773921630859375,-0.9912109375,-0.0082855224609375,-0.1244354248046875
1715194789877995500,8.78399560546875,-0.9913482666015625,-0.008392333984375,-0.12371826171875
1715194789888070700,8.794070556640625,-0.992523193359375,-0.0067291259765625,-0.1253662109375
1715194789898144500,8.80414453125,-0.990692138671875,-0.006927490234375,-0.1242828369140625
1715194789908218600,8.814218505859374,-0.9925689697265625,-0.009185791015625,-0.12408447265625
1715194789918292500,8.82429248046875,-0.9911041259765625,-0.0063323974609375,-0.12274169921875
1715194789928367600,8.83436767578125,-0.9907073974609375,-0.007080078125,-0.12298583984375
1715194789938441500,8.84444140625,-0.99072265625,-0.0076751708984375,-0.1234893798828125
1715194789948515600,8.854515625,-0.991180419921875,-0.006988525390625,-0.125335693359375
1715194789958590500,8.864590576171874,-0.990570068359375,-0.0083160400390625,-0.1227569580078125
1715194789968664600,8.87466455078125,-0.9903564453125,-0.007415771484375,-0.12347412109375
1715194789978738400,8.884738525390626,-0.991119384765625,-0.007904052734375,-0.1241302490234375
1715194789988812800,8.894812744140625,-0.990570068359375,-0.00848388671875,-0.1227569580078125
1715194789998887400,8.904887451171875,-0.9909820556640625,-0.00738525390625,-0.1228179931640625
1715194790008961800,8.9149619140625,-0.99224853515625,-0.006103515625,-0.1251983642578125
1715194790019035600,8.92503564453125,-0.9920501708984375,-0.006500244140625,-0.1254119873046875
1715194790029109500,8.935109619140626,-0.991119384765625,-0.00897216796875,-0.123931884765625
1715194790039184400,8.945184326171875,-0.9909210205078125,-0.009521484375,-0.123626708984375
1715194790049258500,8.955258544921875,-0.990478515625,-0.00836181640625,-0.1230316162109375
1715194790059332400,8.965332275390624,-0.9915008544921875,-0.0078582763671875,-0.1228179931640625
1715194790069406200,8.97540625,-0.9912872314453125,-0.006561279296875,-0.124053955078125
1715194790079481300,8.9854814453125,-0.992706298828125,-0.0073394775390625,-0.12359619140625
1715194790089555200,8.99555517578125,-0.99285888671875,-0.00677490234375,-0.1233673095703125
1715194790099629300,9.00562939453125,-0.991668701171875,-0.0082550048828125,-0.1235504150390625
1715194790109703400,9.015703369140626,-0.9913482666015625,-0.0078582763671875,-0.124267578125
1715194790119778300,9.0257783203125,-0.99090576171875,-0.0071258544921875,-0.1229705810546875
1715194790129852400,9.035852294921876,-0.9918212890625,-0.0070953369140625,-0.124908447265625
1715194790139926500,9.045926513671875,-0.9918212890625,-0.0083160400390625,-0.122772216796875
1715194790150000400,9.05600048828125,-0.99212646484375,-0.0091705322265625,-0.124420166015625
1715194790160075500,9.066075439453124,-0.9915618896484375,-0.0077667236328125,-0.123291015625
1715194790170149400,9.0761494140625,-0.99017333984375,-0.0080108642578125,-0.12353515625
1715194790180223500,9.086223388671876,-0.9906005859375,-0.006683349609375,-0.123382568359375
1715194790190297300,9.09629736328125,-0.990447998046875,-0.008056640625,-0.1240997314453125
1715194790200372500,9.10637255859375,-0.9911041259765625,-0.008819580078125,-0.1244659423828125
1715194790210446300,9.1164462890625,-0.9905548095703125,-0.008575439453125,-0.1217498779296875
1715194790220520200,9.126520263671875,-0.9905242919921875,-0.0069580078125,-0.1234893798828125
1715194790230594300,9.13659423828125,-0.9916534423828125,-0.0072479248046875,-0.1229095458984375
1715194790240669200,9.146669189453124,-0.9905548095703125,-0.00738525390625,-0.123748779296875
1715194790250743300,9.156743408203125,-0.9919586181640625,-0.0068511962890625,-0.1241302490234375
1715194790260817400,9.1668173828125,-0.9913482666015625,-0.007232666015625,-0.1250762939453125
1715194790270891500,9.1768916015625,-0.9920501708984375,-0.0080718994140625,-0.12347412109375
1715194790280966400,9.18696630859375,-0.990478515625,-0.006744384765625,-0.124176025390625
1715194790291040500,9.19704052734375,-0.991180419921875,-0.00885009765625,-0.123992919921875
1715194790301114400,9.2071142578125,-0.992340087890625,-0.0081939697265625,-0.12396240234375
1715194790311188500,9.2171884765625,-0.991363525390625,-0.00848388671875,-0.1240997314453125
1715194790321263400,9.227263427734375,-0.9943084716796875,-0.0071258544921875,-0.124847412109375
1715194790331337500,9.23733740234375,-0.991668701171875,-0.0078582763671875,-0.12255859375
1715194790341411300,9.247411376953124,-0.9909210205078125,-0.0074920654296875,-0.123382568359375
1715194790351485200,9.257485107421875,-0.9919586181640625,-0.0067901611328125,-0.12298583984375
1715194790361560300,9.267560302734376,-0.99053955078125,-0.0074310302734375,-0.12408447265625
1715194790371634400,9.277634521484375,-0.990997314453125,-0.0074310302734375,-0.1239013671875
1715194790381708300,9.287708251953125,-0.9908447265625,-0.007965087890625,-0.1222076416015625
1715194790391782400,9.297782470703124,-0.9918060302734375,-0.007598876953125,-0.121063232421875
1715194790401857300,9.307857177734375,-0.992462158203125,-0.00714111328125,-0.1222991943359375
1715194790411931400,9.317931396484376,-0.993377685546875,-0.00701904296875,-0.1249237060546875
1715194790422005500,9.328005615234375,-0.9894866943359375,-0.0089263916015625,-0.1251678466796875
1715194790432079400,9.338079345703125,-0.9893951416015625,-0.00689697265625,-0.122222900390625
1715194790442154500,9.348154541015624,-0.9927825927734375,-0.005523681640625,-0.122283935546875
1715194790452228400,9.358228271484375,-0.992218017578125,-0.0070343017578125,-0.12359619140625
1715194790462302500,9.368302490234376,-0.988861083984375,-0.008819580078125,-0.1250152587890625
1715194790472377300,9.37837744140625,-0.9915771484375,-0.00799560546875,-0.123809814453125
1715194790482451500,9.388451416015625,-0.9933013916015625,-0.0095367431640625,-0.123626708984375
1715194790492525300,9.398525390625,-0.992095947265625,-0.008148193359375,-0.12359619140625
1715194790502599400,9.408599365234375,-0.9916229248046875,-0.0073394775390625,-0.120941162109375
1715194790512674300,9.41867431640625,-0.9914093017578125,-0.007476806640625,-0.1229095458984375
1715194790522748400,9.42874853515625,-0.9919891357421875,-0.00738525390625,-0.1233673095703125
1715194790532822300,9.438822265625,-0.9914398193359375,-0.006378173828125,-0.1242218017578125
1715194790542896400,9.448896484375,-0.9914093017578125,-0.0074310302734375,-0.1243438720703125
1715194790552971300,9.45897119140625,-0.992095947265625,-0.0073089599609375,-0.1237640380859375
1715194790563045400,9.46904541015625,-0.9913482666015625,-0.005279541015625,-0.1242828369140625
1715194790573119500,9.479119384765625,-0.99169921875,-0.0063018798828125,-0.1234283447265625
1715194790583193300,9.489193359375,-0.992279052734375,-0.0070037841796875,-0.123382568359375
1715194790593268500,9.4992685546875,-0.991424560546875,-0.0079803466796875,-0.1234130859375
1715194790603342300,9.50934228515625,-0.9907073974609375,-0.006622314453125,-0.1237030029296875
1715194790613416400,9.51941650390625,-0.991363525390625,-0.006805419921875,-0.1214447021484375
1715194790623490300,9.529490234375,-0.9914703369140625,-0.007354736328125,-0.122528076171875
1715194790633565400,9.5395654296875,-0.9924468994140625,-0.0070648193359375,-0.124847412109375
1715194790643639300,9.549639404296874,-0.9917144775390625,-0.0065765380859375,-0.122894287109375
1715194790653713400,9.55971337890625,-0.9918060302734375,-0.0057525634765625,-0.122894287109375
1715194790663787300,9.569787353515625,-0.9926605224609375,-0.0078887939453125,-0.1248931884765625
1715194790673862400,9.5798623046875,-0.991668701171875,-0.008331298828125,-0.12506103515625
1715194790683936300,9.589936279296875,-0.9920654296875,-0.0079345703125,-0.122406005859375
1715194790694010400,9.60001025390625,-0.98931884765625,-0.006988525390625,-0.12469482421875
1715194790704084500,9.61008447265625,-0.990753173828125,-0.007049560546875,-0.1231231689453125
1715194790714159400,9.620159423828126,-0.9908905029296875,-0.00701904296875,-0.123992919921875
1715194790724233500,9.6302333984375,-0.99310302734375,-0.0067291259765625,-0.12286376953125
1715194790734307300,9.640307373046875,-0.990692138671875,-0.0060882568359375,-0.122711181640625
1715194790744381400,9.65038134765625,-0.9921875,-0.00811767578125,-0.1229400634765625
1715194790754456300,9.660456298828125,-0.9906768798828125,-0.007843017578125,-0.1248321533203125
1715194790764530400,9.670530517578126,-0.9897918701171875,-0.0076904296875,-0.1256256103515625
1715194790774604300,9.680604248046874,-0.9899749755859375,-0.008209228515625,-0.1251373291015625
1715194790784678400,9.690678466796875,-0.9916229248046875,-0.0075836181640625,-0.122100830078125
1715194790794753300,9.700753173828126,-0.9916229248046875,-0.0071258544921875,-0.1242523193359375
1715194790804827400,9.710827392578125,-0.99188232421875,-0.0072479248046875,-0.1228179931640625
1715194790814901200,9.7209013671875,-0.9908294677734375,-0.007415771484375,-0.122100830078125
1715194790824975400,9.730975341796874,-0.992279052734375,-0.005645751953125,-0.1229705810546875
1715194790835050200,9.74105029296875,-0.99041748046875,-0.0090179443359375,-0.1226806640625
1715194790845124600,9.75112451171875,-0.990020751953125,-0.0062713623046875,-0.124298095703125
1715194790855198500,9.761198486328125,-0.9922943115234375,-0.0070037841796875,-0.1255950927734375
1715194790865272300,9.771272216796875,-0.990997314453125,-0.0080718994140625,-0.1243896484375
1715194790875347500,9.781347412109374,-0.990447998046875,-0.00787353515625,-0.1229705810546875
1715194790885421300,9.79142138671875,-0.992218017578125,-0.0066070556640625,-0.12347412109375
1715194790895495400,9.801495361328126,-0.991851806640625,-0.0069122314453125,-0.1248626708984375
1715194790905569300,9.8115693359375,-0.9921112060546875,-0.007537841796875,-0.124359130859375
1715194790915644400,9.82164453125,-0.9916229248046875,-0.0057525634765625,-0.1237640380859375
1715194790925718300,9.83171826171875,-0.991424560546875,-0.0073394775390625,-0.1255035400390625
1715194790935792400,9.84179248046875,-0.9904937744140625,-0.006927490234375,-0.1222381591796875
1715194790945866200,9.8518662109375,-0.9906158447265625,-0.0064239501953125,-0.12396240234375
1715194790955941400,9.86194140625,-0.9913787841796875,-0.0091552734375,-0.124969482421875
1715194790966015200,9.87201513671875,-0.9922943115234375,-0.0078887939453125,-0.122589111328125
1715194790976089600,9.882089599609374,-0.9900360107421875,-0.0074920654296875,-0.1237030029296875
1715194790986163500,9.89216357421875,-0.9899749755859375,-0.0066680908203125,-0.1230316162109375
1715194790996238600,9.902238525390626,-0.9904022216796875,-0.006591796875,-0.123291015625
1715194791006312400,9.9123125,-0.9909820556640625,-0.0066986083984375,-0.1214599609375
1715194791016386300,9.92238623046875,-0.990325927734375,-0.0085601806640625,-0.1237030029296875
1715194791026461400,9.93246142578125,-0.9929656982421875,-0.0063934326171875,-0.1238861083984375
1715194791036534800,9.94253466796875,-0.992462158203125,-0.0059814453125,-0.123077392578125
1715194791046609000,9.95260888671875,-0.991973876953125,-0.00811767578125,-0.12445068359375
1715194791056682800,9.962682861328124,-0.9911041259765625,-0.007965087890625,-0.1244049072265625
1715194791066758000,9.9727578125,-0.9904937744140625,-0.0081939697265625,-0.1240692138671875
1715194791076831700,9.982831787109374,-0.9911956787109375,-0.0073394775390625,-0.121978759765625
1715194791086905900,9.99290576171875,-0.99224853515625,-0.007080078125,-0.1245269775390625
1715194791096980000,10.00297998046875,-0.9903564453125,-0.0081787109375,-0.1223907470703125
1715194791107054800,10.013054931640625,-0.9901580810546875,-0.00836181640625,-0.123870849609375
1715194791117129000,10.02312890625,-0.9916534423828125,-0.0064849853515625,-0.1240234375
1715194791127202800,10.033202880859376,-0.99017333984375,-0.00787353515625,-0.1238250732421875
1715194791137277000,10.04327685546875,-0.9899139404296875,-0.00830078125,-0.12347412109375
1715194791147352000,10.05335205078125,-0.9885711669921875,-0.00775146484375,-0.124725341796875
1715194791157426000,10.063426025390624,-0.991485595703125,-0.0067138671875,-0.1230316162109375
1715194791167499800,10.073499755859375,-0.991943359375,-0.0063018798828125,-0.123016357421875
1715194791177574000,10.083573974609376,-0.9915313720703125,-0.0086822509765625,-0.1230926513671875
1715194791187648800,10.093648681640625,-0.9913482666015625,-0.0086212158203125,-0.1241302490234375
1715194791197723000,10.103722900390625,-0.9916229248046875,-0.008148193359375,-0.1236572265625
1715194791207796700,10.113796630859374,-0.990142822265625,-0.0068511962890625,-0.1236114501953125
1715194791217870800,10.123870849609375,-0.991729736328125,-0.0069122314453125,-0.1234283447265625
1715194791227945700,10.13394580078125,-0.9918975830078125,-0.0068511962890625,-0.1225128173828125
1715194791238019800,10.144019775390625,-0.9909820556640625,-0.00799560546875,-0.124420166015625
1715194791248094000,10.154093994140625,-0.990997314453125,-0.0084075927734375,-0.123077392578125
1715194791258168000,10.16416796875,-0.99169921875,-0.0064239501953125,-0.1236572265625
1715194791268243000,10.174242919921875,-0.99200439453125,-0.0083770751953125,-0.123382568359375
1715194791278317000,10.184317138671876,-0.99127197265625,-0.006500244140625,-0.1230926513671875
1715194791288391000,10.194390869140625,-0.99114990234375,-0.007598876953125,-0.12261962890625
1715194791298464800,10.20446484375,-0.991607666015625,-0.0073089599609375,-0.1230010986328125
1715194791308540000,10.214539794921874,-0.9907379150390625,-0.007568359375,-0.1251068115234375
1715194791318613800,10.22461376953125,-0.9922027587890625,-0.007568359375,-0.124237060546875
1715194791328687900,10.23468798828125,-0.99017333984375,-0.007659912109375,-0.123809814453125
1715194791338761700,10.24476171875,-0.9904937744140625,-0.0069427490234375,-0.123260498046875
1715194791348836900,10.2548369140625,-0.99127197265625,-0.0081939697265625,-0.1236419677734375
1715194791358910700,10.26491064453125,-0.992340087890625,-0.0078125,-0.12457275390625
1715194791368984800,10.27498486328125,-0.9916839599609375,-0.0062713623046875,-0.12298583984375
1715194791379059000,10.285058837890626,-0.9911956787109375,-0.0073394775390625,-0.1241912841796875
1715194791389133800,10.2951337890625,-0.9909820556640625,-0.0081939697265625,-0.125091552734375
1715194791399208000,10.3052080078125,-0.9909820556640625,-0.00775146484375,-0.1235198974609375
1715194791409282000,10.315281982421874,-0.9918365478515625,-0.007904052734375,-0.1234893798828125
1715194791419356000,10.32535595703125,-0.9901275634765625,-0.007415771484375,-0.123626708984375
1715194791429431000,10.33543115234375,-0.9920806884765625,-0.006622314453125,-0.123565673828125
1715194791439505000,10.3455048828125,-0.9933929443359375,-0.0058135986328125,-0.1222686767578125
1715194791449578800,10.355578857421875,-0.99200439453125,-0.007598876953125,-0.124298095703125
1715194791459652900,10.36565283203125,-0.990081787109375,-0.0074005126953125,-0.12432861328125
1715194791469727700,10.375727783203125,-0.9910888671875,-0.0068359375,-0.121429443359375
1715194791479801900,10.3858017578125,-0.9927825927734375,-0.007232666015625,-0.122650146484375
1715194791489875700,10.395875732421874,-0.990142822265625,-0.0083160400390625,-0.124298095703125
1715194791499950800,10.405950927734375,-0.988555908203125,-0.0073394775390625,-0.1239166259765625
1715194791510024700,10.416024658203124,-0.9919586181640625,-0.0071563720703125,-0.1228485107421875
1715194791520098800,10.426098876953125,-0.9908447265625,-0.0076446533203125,-0.1237335205078125
1715194791530173000,10.4361728515625,-0.990631103515625,-0.0069122314453125,-0.1249237060546875
1715194791540247800,10.446247802734375,-0.9912109375,-0.0051422119140625,-0.1222076416015625
1715194791550322000,10.456322021484375,-0.992034912109375,-0.008087158203125,-0.1228790283203125
1715194791560396000,10.46639599609375,-0.9898681640625,-0.006744384765625,-0.1246795654296875
1715194791570470000,10.476469970703125,-0.9909210205078125,-0.006744384765625,-0.1240997314453125
1715194791580545000,10.486544921875,-0.9906768798828125,-0.0077667236328125,-0.1246490478515625
1715194791590619000,10.496618896484375,-0.989288330078125,-0.0074462890625,-0.1235809326171875
1715194791600692700,10.506692626953125,-0.991302490234375,-0.0073699951171875,-0.1225738525390625
1715194791610766800,10.516766845703126,-0.991546630859375,-0.006866455078125,-0.12213134765625
1715194791620842000,10.526842041015625,-0.9927978515625,-0.0068359375,-0.1219024658203125
1715194791630915800,10.536915771484376,-0.9903717041015625,-0.007293701171875,-0.123321533203125
1715194791640989700,10.54698974609375,-0.99090576171875,-0.00762939453125,-0.1228179931640625
1715194791651063800,10.557063720703125,-0.9908447265625,-0.008392333984375,-0.122894287109375
1715194791661138700,10.567138671875,-0.9918365478515625,-0.0059051513671875,-0.1235198974609375
1715194791671212800,10.577212890625,-0.9918212890625,-0.007568359375,-0.1236724853515625
1715194791681287000,10.587286865234375,-0.9896697998046875,-0.0075225830078125,-0.1238250732421875
1715194791691361000,10.597361083984374,-0.98956298828125,-0.0073699951171875,-0.1238250732421875
1715194791701436000,10.607435791015625,-0.9913482666015625,-0.007171630859375,-0.123016357421875
1715194791711510000,10.617510009765626,-0.991485595703125,-0.0078887939453125,-0.1224212646484375
1715194791721583900,10.627583984375,-0.99224853515625,-0.007110595703125,-0.1235198974609375
1715194791731658000,10.637657958984375,-0.9920501708984375,-0.007659912109375,-0.1237640380859375
1715194791741732900,10.64773291015625,-0.989532470703125,-0.0088653564453125,-0.1239166259765625
1715194791751807000,10.657806884765625,-0.9918670654296875,-0.0077056884765625,-0.123687744140625
1715194791761880800,10.667880859375,-0.9915008544921875,-0.0069580078125,-0.1226043701171875
1715194791771954700,10.67795458984375,-0.991546630859375,-0.00604248046875,-0.12359619140625
1715194791782029800,10.68802978515625,-0.9921112060546875,-0.007659912109375,-0.124664306640625
1715194791792103700,10.698103759765624,-0.992340087890625,-0.00830078125,-0.123687744140625
1715194791802177800,10.708177734375,-0.9910736083984375,-0.0082550048828125,-0.12261962890625
1715194791812252000,10.718251953125,-0.9920501708984375,-0.0062713623046875,-0.1240234375
1715194791822326800,10.728326904296875,-0.9933929443359375,-0.006866455078125,-0.1237335205078125
1715194791832401000,10.73840087890625,-0.9919586181640625,-0.0073699951171875,-0.1227264404296875
1715194791842475000,10.74847509765625,-0.991607666015625,-0.0065155029296875,-0.12384033203125
1715194791852548900,10.758548828125,-0.9935302734375,-0.007080078125,-0.124786376953125
1715194791862624000,10.7686240234375,-0.9898529052734375,-0.007843017578125,-0.1223907470703125
1715194791872697900,10.77869775390625,-0.9915618896484375,-0.0078887939453125,-0.12408447265625
1715194791882772000,10.78877197265625,-0.99114990234375,-0.00628662109375,-0.124755859375
1715194791892845800,10.798845703125,-0.9908905029296875,-0.008209228515625,-0.1239166259765625
1715194791902921000,10.8089208984375,-0.9903717041015625,-0.0058441162109375,-0.12249755859375
1715194791912994800,10.818994873046876,-0.9923248291015625,-0.0060882568359375,-0.1233367919921875
1715194791923068700,10.829068603515625,-0.992095947265625,-0.006103515625,-0.12225341796875
1715194791933142800,10.839142822265625,-0.99127197265625,-0.007568359375,-0.12384033203125
1715194791943217700,10.8492177734375,-0.9906463623046875,-0.008270263671875,-0.1240997314453125
1715194791953291800,10.859291748046875,-0.9912567138671875,-0.007232666015625,-0.12481689453125
1715194791963366000,10.869365966796876,-0.9935760498046875,-0.006622314453125,-0.1248321533203125
1715194791973440000,10.87943994140625,-0.9921112060546875,-0.0062713623046875,-0.1241912841796875
1715194791983515000,10.889514892578125,-0.9896087646484375,-0.0086517333984375,-0.1234130859375
1715194791993589000,10.899589111328124,-0.99188232421875,-0.0081939697265625,-0.12310791015625
1715194792003662800,10.909662841796875,-0.9933929443359375,-0.0086822509765625,-0.1234283447265625
1715194792013737000,10.919737060546876,-0.993194580078125,-0.00830078125,-0.1229705810546875
1715194792023811800,10.929811767578125,-0.9900360107421875,-0.0073394775390625,-0.12359619140625
1715194792033886200,10.93988623046875,-0.9914398193359375,-0.0075531005859375,-0.1236572265625
1715194792043960000,10.9499599609375,-0.9930267333984375,-0.0068206787109375,-0.1226043701171875
1715194792054034200,10.9600341796875,-0.9914093017578125,-0.00732421875,-0.1226043701171875
1715194792064109000,10.970109130859376,-0.991546630859375,-0.0075531005859375,-0.12445068359375
1715194792074183200,10.98018310546875,-0.989105224609375,-0.007293701171875,-0.123748779296875
1715194792084257000,10.990257080078125,-0.99127197265625,-0.0072479248046875,-0.12396240234375
1715194792094331400,11.000331298828126,-0.992340087890625,-0.007659912109375,-0.12408447265625
1715194792104406000,11.010406005859375,-0.991668701171875,-0.007415771484375,-0.1242828369140625
1715194792114480400,11.02048046875,-0.9913330078125,-0.00726318359375,-0.123931884765625
1715194792124554200,11.03055419921875,-0.9919586181640625,-0.0068359375,-0.123870849609375
1715194792134629400,11.04062939453125,-0.991607666015625,-0.0063018798828125,-0.1232452392578125
1715194792144703200,11.050703125,-0.990203857421875,-0.0083465576171875,-0.123687744140625
1715194792154777300,11.06077734375,-0.990997314453125,-0.0068817138671875,-0.1253509521484375
1715194792164851200,11.070851318359376,-0.9932098388671875,-0.0076446533203125,-0.12261962890625
1715194792174926300,11.08092626953125,-0.99114990234375,-0.0076141357421875,-0.1228790283203125
1715194792185000200,11.091000244140625,-0.9924774169921875,-0.0072479248046875,-0.12347412109375
1715194792195074000,11.101073974609376,-0.991119384765625,-0.006805419921875,-0.1243133544921875
1715194792205148200,11.111148193359375,-0.9908447265625,-0.0059814453125,-0.1226806640625
1715194792215223300,11.121223388671876,-0.991729736328125,-0.007080078125,-0.123992919921875
1715194792225297200,11.131297119140624,-0.9905242919921875,-0.008026123046875,-0.125030517578125
1715194792235371000,11.14137109375,-0.99127197265625,-0.0078277587890625,-0.123138427734375
1715194792245445400,11.1514453125,-0.991180419921875,-0.0070037841796875,-0.1234893798828125
1715194792255520000,11.16152001953125,-0.9909210205078125,-0.00738525390625,-0.12213134765625
1715194792265594400,11.171594482421876,-0.9920654296875,-0.0069122314453125,-0.123382568359375
1715194792275668200,11.181668212890624,-0.9905548095703125,-0.00714111328125,-0.12353515625
1715194792285742300,11.191742431640625,-0.9927215576171875,-0.0062713623046875,-0.1231536865234375
1715194792295817200,11.201817138671874,-0.9902191162109375,-0.007568359375,-0.1229705810546875
1715194792305891300,11.211891357421875,-0.990234375,-0.0076751708984375,-0.1229400634765625
1715194792315965200,11.221965087890625,-0.9913330078125,-0.0085601806640625,-0.1250152587890625
1715194792326039300,11.232039306640624,-0.9918365478515625,-0.006805419921875,-0.123260498046875
1715194792336114200,11.2421142578125,-0.9924163818359375,-0.0086669921875,-0.123779296875
1715194792346188300,11.252188232421876,-0.99212646484375,-0.0070953369140625,-0.1235198974609375
1715194792356262100,11.26226220703125,-0.992279052734375,-0.0088653564453125,-0.1226043701171875
1715194792366336000,11.2723359375,-0.9913482666015625,-0.005096435546875,-0.1221160888671875
1715194792376411100,11.2824111328125,-0.991851806640625,-0.0044708251953125,-0.122528076171875
1715194792386485000,11.292485107421875,-0.9911651611328125,-0.007415771484375,-0.124847412109375
1715194792396559400,11.302559326171876,-0.9901275634765625,-0.0087738037109375,-0.12298583984375
1715194792406633200,11.31263330078125,-0.9937744140625,-0.0055084228515625,-0.1210784912109375
1715194792416708400,11.322708251953125,-0.9911651611328125,-0.0087890625,-0.1244049072265625
1715194792426782200,11.3327822265625,-0.9888916015625,-0.008026123046875,-0.123809814453125
1715194792436856300,11.342856201171875,-0.99041748046875,-0.00732421875,-0.122955322265625
1715194792446930200,11.35293017578125,-0.9926605224609375,-0.006744384765625,-0.1242828369140625
1715194792457005300,11.36300537109375,-0.9911956787109375,-0.007904052734375,-0.1245269775390625
1715194792467079200,11.3730791015625,-0.991302490234375,-0.007293701171875,-0.1240386962890625
1715194792477153300,11.3831533203125,-0.9934234619140625,-0.006744384765625,-0.1236572265625
1715194792487227100,11.39322705078125,-0.99053955078125,-0.00762939453125,-0.1225128173828125
1715194792497302300,11.40330224609375,-0.99163818359375,-0.007476806640625,-0.1233062744140625
1715194792507376000,11.413376220703125,-0.9923248291015625,-0.008026123046875,-0.123321533203125
1715194792517450000,11.423449951171875,-0.9909210205078125,-0.0074615478515625,-0.1233062744140625
1715194792527524400,11.4335244140625,-0.99041748046875,-0.0081024169921875,-0.123291015625
1715194792537599000,11.443598876953125,-0.9907684326171875,-0.006195068359375,-0.1239471435546875
1715194792547673300,11.45367333984375,-0.9907684326171875,-0.0058746337890625,-0.124725341796875
1715194792557747200,11.463747314453125,-0.99212646484375,-0.0062103271484375,-0.122589111328125
1715194792567821300,11.4738212890625,-0.991546630859375,-0.0072479248046875,-0.122222900390625
1715194792577896200,11.483896240234374,-0.99114990234375,-0.0054931640625,-0.1237030029296875
1715194792587970300,11.49397021484375,-0.992095947265625,-0.0072479248046875,-0.1237030029296875
1715194792598044200,11.504044189453126,-0.9931182861328125,-0.00677490234375,-0.123382568359375
1715194792608118300,11.5141181640625,-0.9920654296875,-0.008544921875,-0.1246795654296875
1715194792618193200,11.524193115234375,-0.98992919921875,-0.00640869140625,-0.123870849609375
1715194792628267300,11.534267333984374,-0.99114990234375,-0.0068359375,-0.12152099609375
1715194792638341000,11.544341064453125,-0.9891204833984375,-0.0068359375,-0.123382568359375
1715194792648415000,11.5544150390625,-0.9924163818359375,-0.0080718994140625,-0.12249755859375
1715194792658490000,11.564489990234375,-0.9910736083984375,-0.0059967041015625,-0.124603271484375
1715194792668564000,11.57456396484375,-0.9917755126953125,-0.00836181640625,-0.1234588623046875
1715194792678638300,11.584638427734374,-0.990020751953125,-0.0070037841796875,-0.12310791015625
1715194792688712200,11.594712158203125,-0.9914093017578125,-0.007537841796875,-0.122589111328125
1715194792698787300,11.604787353515626,-0.9896697998046875,-0.0072021484375,-0.1214599609375
1715194792708861200,11.614861083984374,-0.9933929443359375,-0.007598876953125,-0.12396240234375
1715194792718935300,11.624935302734375,-0.9913177490234375,-0.0087890625,-0.122406005859375
1715194792729009200,11.635009033203126,-0.9905853271484375,-0.00628662109375,-0.1258087158203125
1715194792739084300,11.645084228515625,-0.9902191162109375,-0.0072784423828125,-0.1239776611328125
1715194792749158100,11.655158203125,-0.990753173828125,-0.0064697265625,-0.12432861328125
1715194792759232300,11.665232177734374,-0.990966796875,-0.0078125,-0.123382568359375
1715194792769306000,11.67530615234375,-0.9923095703125,-0.0067138671875,-0.1241912841796875
1715194792779381200,11.68538134765625,-0.990692138671875,-0.0067138671875,-0.1234893798828125
1715194792789455000,11.695455078125,-0.9901580810546875,-0.0064849853515625,-0.1215667724609375
1715194792799529200,11.705529296875,-0.9910888671875,-0.0058441162109375,-0.12286376953125
1715194792809603300,11.715603271484374,-0.991119384765625,-0.0072174072265625,-0.122894287109375
1715194792819678200,11.72567822265625,-0.9913787841796875,-0.0072174072265625,-0.124481201171875
1715194792829752300,11.73575244140625,-0.990814208984375,-0.0078582763671875,-0.123321533203125
1715194792839826200,11.745826171875,-0.99090576171875,-0.0081787109375,-0.1222686767578125
1715194792849901300,11.7559013671875,-0.9916839599609375,-0.006195068359375,-0.122467041015625
1715194792859975200,11.76597509765625,-0.9917144775390625,-0.007110595703125,-0.125030517578125
1715194792870049300,11.77604931640625,-0.991119384765625,-0.0068206787109375,-0.1228485107421875
1715194792880123100,11.786123046875,-0.9905853271484375,-0.007171630859375,-0.1231689453125
1715194792890198300,11.7961982421875,-0.9905548095703125,-0.0077362060546875,-0.1218719482421875
1715194792900272000,11.806272216796875,-0.9925994873046875,-0.006683349609375,-0.1225433349609375
1715194792910346200,11.81634619140625,-0.99365234375,-0.0069580078125,-0.1224365234375
1715194792920420000,11.826420166015625,-0.989471435546875,-0.0063629150390625,-0.124908447265625
1715194792930495200,11.8364951171875,-0.991546630859375,-0.007171630859375,-0.1231689453125
1715194792940569000,11.846569091796875,-0.9922943115234375,-0.00653076171875,-0.122344970703125
1715194792950643200,11.856643310546875,-0.9921112060546875,-0.0078277587890625,-0.123443603515625
1715194792960717300,11.86671728515625,-0.9904937744140625,-0.0084228515625,-0.12286376953125
1715194792970792200,11.876792236328125,-0.9916839599609375,-0.0072784423828125,-0.12335205078125
1715194792980866300,11.8868662109375,-0.992156982421875,-0.00799560546875,-0.1234588623046875
1715194792990940200,11.896940185546875,-0.9916534423828125,-0.008880615234375,-0.122589111328125
1715194793001014300,11.90701416015625,-0.991119384765625,-0.0081939697265625,-0.125732421875
1715194793011089200,11.917089111328124,-0.993499755859375,-0.0056304931640625,-0.12298583984375
1715194793021163300,11.927163330078125,-0.992889404296875,-0.00830078125,-0.123260498046875
1715194793031237000,11.937237060546876,-0.99163818359375,-0.0077362060546875,-0.1254119873046875
1715194793041311500,11.9473115234375,-0.9900360107421875,-0.008056640625,-0.122314453125
1715194793051386400,11.957386474609375,-0.9914093017578125,-0.0076141357421875,-0.1219635009765625
1715194793061460500,11.96746044921875,-0.991973876953125,-0.0067596435546875,-0.12298583984375
1715194793071534300,11.977534423828125,-0.9902191162109375,-0.0066070556640625,-0.124847412109375
1715194793081608400,11.9876083984375,-0.9905242919921875,-0.0083770751953125,-0.12274169921875
1715194793091683300,11.997683349609375,-0.9908447265625,-0.0072021484375,-0.1226806640625
1715194793101757400,12.00775732421875,-0.991943359375,-0.0082244873046875,-0.1220245361328125
1715194793111831600,12.01783154296875,-0.9917449951171875,-0.0064697265625,-0.1227264404296875
1715194793121905700,12.02790576171875,-0.991119384765625,-0.0088043212890625,-0.1233673095703125
1715194793131980500,12.03798046875,-0.9898529052734375,-0.006439208984375,-0.123016357421875
1715194793142054700,12.0480546875,-0.991729736328125,-0.007080078125,-0.1237030029296875
1715194793152128500,12.05812841796875,-0.992584228515625,-0.0081024169921875,-0.1239471435546875
1715194793162202400,12.068202392578126,-0.9917144775390625,-0.0077362060546875,-0.1243438720703125
1715194793172277500,12.078277587890625,-0.9918060302734375,-0.0060882568359375,-0.1229095458984375
1715194793182351400,12.088351318359376,-0.992401123046875,-0.0066375732421875,-0.1231536865234375
1715194793192425500,12.098425537109375,-0.9916229248046875,-0.006805419921875,-0.1233367919921875
1715194793202499300,12.108499267578125,-0.9922332763671875,-0.007232666015625,-0.124267578125
1715194793212574500,12.118574462890624,-0.9899444580078125,-0.0077667236328125,-0.1225128173828125
1715194793222648300,12.1286484375,-0.9921722412109375,-0.0070648193359375,-0.1240081787109375
1715194793232722400,12.138722412109376,-0.991119384765625,-0.007659912109375,-0.122955322265625
1715194793242796500,12.148796630859374,-0.990386962890625,-0.007568359375,-0.122100830078125
1715194793252871400,12.158871337890625,-0.9903106689453125,-0.0065460205078125,-0.123260498046875
1715194793262945500,12.168945556640624,-0.9918365478515625,-0.0055084228515625,-0.125213623046875
1715194793273019600,12.17901953125,-0.99310302734375,-0.007965087890625,-0.122344970703125
1715194793283093500,12.189093505859375,-0.991180419921875,-0.0066680908203125,-0.1236572265625
1715194793293168600,12.199168701171875,-0.9918670654296875,-0.0090179443359375,-0.124786376953125
1715194793303242500,12.209242431640625,-0.99072265625,-0.0076904296875,-0.123687744140625
1715194793313316400,12.21931640625,-0.991241455078125,-0.006561279296875,-0.1235198974609375
1715194793323390500,12.229390380859375,-0.99169921875,-0.0090789794921875,-0.12286376953125
1715194793333465300,12.23946533203125,-0.991363525390625,-0.0068359375,-0.1234283447265625
1715194793343539500,12.24953955078125,-0.9924774169921875,-0.0058746337890625,-0.1216583251953125
1715194793353613300,12.25961328125,-0.9933624267578125,-0.008697509765625,-0.12249755859375
1715194793363687400,12.2696875,-0.9929656982421875,-0.00787353515625,-0.1243133544921875
1715194793373762300,12.27976220703125,-0.9919586181640625,-0.008392333984375,-0.1246337890625
1715194793383836400,12.28983642578125,-0.99298095703125,-0.0084686279296875,-0.123077392578125
1715194793393910500,12.29991064453125,-0.9901123046875,-0.0063629150390625,-0.124114990234375
1715194793403984600,12.309984619140625,-0.9921417236328125,-0.00653076171875,-0.124786376953125
1715194793414059500,12.3200595703125,-0.99041748046875,-0.0077972412109375,-0.12286376953125
1715194793424133600,12.330133544921875,-0.9907989501953125,-0.006866455078125,-0.123931884765625
1715194793434207500,12.34020751953125,-0.99200439453125,-0.0076446533203125,-0.1246337890625
1715194793444281300,12.35028125,-0.992156982421875,-0.00689697265625,-0.1233367919921875
1715194793454356500,12.3603564453125,-0.991973876953125,-0.0084686279296875,-0.121612548828125
1715194793464430300,12.370430419921876,-0.9897613525390625,-0.0077056884765625,-0.1228179931640625
1715194793474504400,12.38050439453125,-0.991363525390625,-0.006195068359375,-0.1235809326171875
1715194793484578300,12.390578369140625,-0.9915618896484375,-0.0065765380859375,-0.1233062744140625
1715194793494653400,12.4006533203125,-0.9918975830078125,-0.0077362060546875,-0.122955322265625
1715194793504727300,12.410727294921875,-0.99267578125,-0.0055999755859375,-0.122100830078125
1715194793514801400,12.420801513671876,-0.9917449951171875,-0.006805419921875,-0.1242218017578125
1715194793524875500,12.43087548828125,-0.992919921875,-0.0076904296875,-0.1230316162109375
1715194793534950400,12.440950439453125,-0.99151611328125,-0.0070648193359375,-0.1233978271484375
1715194793545024500,12.4510244140625,-0.9915771484375,-0.0060577392578125,-0.124053955078125
1715194793555098600,12.4610986328125,-0.990631103515625,-0.0067596435546875,-0.123382568359375
1715194793565172500,12.47117236328125,-0.9891357421875,-0.007110595703125,-0.1227874755859375
1715194793575247600,12.48124755859375,-0.9913330078125,-0.0066070556640625,-0.123626708984375
1715194793585321500,12.491321533203125,-0.9933929443359375,-0.007537841796875,-0.1234588623046875
1715194793595395600,12.5013955078125,-0.9902191162109375,-0.007476806640625,-0.1222381591796875
1715194793605469400,12.511469482421875,-0.9910736083984375,-0.0078277587890625,-0.124053955078125
1715194793615544600,12.521544677734376,-0.991790771484375,-0.0079193115234375,-0.1249847412109375
1715194793625618400,12.531618408203125,-0.989990234375,-0.00714111328125,-0.1222076416015625
1715194793635692300,12.5416923828125,-0.9920501708984375,-0.00677490234375,-0.123504638671875
1715194793645766400,12.551766357421876,-0.99114990234375,-0.005401611328125,-0.1237945556640625
1715194793655841300,12.56184130859375,-0.9913330078125,-0.007965087890625,-0.12298583984375
1715194793665915400,12.571915283203126,-0.99053955078125,-0.007537841796875,-0.1216888427734375
1715194793675989500,12.581989501953124,-0.9921112060546875,-0.0062255859375,-0.12261962890625
1715194793686063600,12.592063720703125,-0.993408203125,-0.006561279296875,-0.121795654296875
1715194793696138500,12.602138427734374,-0.9940948486328125,-0.00665283203125,-0.12506103515625
1715194793706212600,12.612212646484375,-0.9898834228515625,-0.008880615234375,-0.12591552734375
1715194793716286500,12.622286376953125,-0.991119384765625,-0.0075225830078125,-0.1225738525390625
1715194793726360600,12.632360595703124,-0.9939422607421875,-0.007415771484375,-0.121185302734375
1715194793736435500,12.642435546875,-0.9906005859375,-0.0081787109375,-0.1251220703125
1715194793746509600,12.652509521484374,-0.9901123046875,-0.007537841796875,-0.12652587890625
1715194793756583400,12.66258349609375,-0.99102783203125,-0.00604248046875,-0.124176025390625
1715194793766657300,12.6726572265625,-0.9936065673828125,-0.0079803466796875,-0.12322998046875
1715194793776732400,12.682732421875,-0.9923248291015625,-0.0078277587890625,-0.12310791015625
1715194793786806300,12.69280615234375,-0.989166259765625,-0.0067291259765625,-0.1230926513671875
1715194793796880400,12.70288037109375,-0.9909210205078125,-0.007904052734375,-0.1225433349609375
1715194793806954500,12.71295458984375,-0.992156982421875,-0.009002685546875,-0.1222381591796875
1715194793817029400,12.723029296875,-0.9918212890625,-0.0069580078125,-0.1234588623046875
1715194793827103500,12.733103515625,-0.9902801513671875,-0.007537841796875,-0.1216278076171875
1715194793837177600,12.743177490234375,-0.9927978515625,-0.007568359375,-0.12322998046875
1715194793847251500,12.75325146484375,-0.9922637939453125,-0.0083770751953125,-0.1231842041015625
1715194793857326600,12.76332666015625,-0.993133544921875,-0.007843017578125,-0.1241607666015625
1715194793867400400,12.773400390625,-0.9917144775390625,-0.0072479248046875,-0.125
1715194793877474600,12.783474609375,-0.991912841796875,-0.0066680908203125,-0.12298583984375
1715194793887548400,12.79354833984375,-0.9916534423828125,-0.005889892578125,-0.1234283447265625
1715194793897623600,12.80362353515625,-0.989776611328125,-0.0075531005859375,-0.1234893798828125
1715194793907697400,12.813697509765625,-0.991455078125,-0.007293701171875,-0.123504638671875
1715194793917771300,12.823771240234375,-0.99078369140625,-0.006988525390625,-0.12359619140625
1715194793927845400,12.833845458984374,-0.9923858642578125,-0.0068206787109375,-0.1248626708984375
1715194793937920300,12.843920166015625,-0.9922943115234375,-0.0077972412109375,-0.1214599609375
