time,seconds_elapsed,z,y,x
1715194781112127200,0.018127197265625,-2.2953239372968675,-1.6113710747823118,2.873631482513249
1715194781122201000,0.028201171875,-2.400419219496846,-1.2112339117836206,3.9876097927466034
1715194781132275500,0.038275390625,-1.870419778114557,-0.4519930224422365,4.1572178791284555
1715194781142350000,0.04835009765625,-1.6612848602473735,-0.22194076955690978,4.030356463061273
1715194781152424400,0.058424560546875,-1.7680284941762685,-0.5276939409188925,4.1338568772852415
1715194781162498300,0.068498291015625,-1.6320763014197348,-0.36330548888146874,3.546192597919702
1715194781172572200,0.078572265625,-1.6412100404679775,0.1964386640317738,2.821372010704875
1715194781182647300,0.088647216796875,-1.4986819764524697,0.4013597635962069,2.132513402100652
1715194781192721200,0.09872119140625,-0.9644944357305765,0.3131752111215144,1.347567285877466
1715194781202795300,0.108795166015625,-0.027663082951307295,0.2244630545761436,0.44814679534286256
1715194781212870400,0.118870361328125,1.0248305387496948,-0.024878128407895564,-0.4523316798120737
1715194781222944300,0.1289443359375,1.7776544006556272,-0.2687798237517476,-1.1567165049806236
1715194781233018000,0.13901806640625,2.41454828261435,-0.4212560850035399,-1.78004114966169
1715194781243092200,0.14909228515625,3.065041650858521,-0.6226872966255992,-2.211947150430083
1715194781253167000,0.1591669921875,3.5149218458652496,-0.5773794705860317,-2.3374019145697353
1715194781263241200,0.1692412109375,3.781730369544029,-0.34620807747766374,-2.1392522088363766
1715194781273315000,0.179315185546875,3.79825246527791,-0.011513035400211811,-2.0326457914210856
1715194781283390200,0.18939013671875,3.7078584931254386,0.37482166608683765,-2.156496335234493
1715194781293464000,0.199464111328125,3.561932018843293,0.4339462744243443,-2.285251748354733
1715194781303538400,0.209538330078125,3.3269624024957416,0.08024484551660716,-2.1654190618805584
1715194781313612300,0.2196123046875,2.8716216039955613,-0.2515335053965449,-1.873868165002763
1715194781323687400,0.2296875,2.0278718550175427,-0.6941446592483669,-1.6050079694911836
1715194781333761300,0.23976123046875,1.1590800192415713,-1.0034497509382665,-1.6548504432857036
1715194781343835400,0.24983544921875,0.6778899092137813,-1.2253224236950278,-1.9409253929704426
1715194781353910300,0.25991015625,0.4967079971551895,-1.5041595310807228,-2.12259640372023
1715194781363984400,0.269984375,0.3747919285356998,-1.52489398381263,-1.9955428260818122
1715194781374058200,0.280058349609375,0.07050093868076801,-0.8960149198748171,-1.311722065514326
1715194781384132000,0.290132080078125,-0.19370821615457534,0.06764291890114546,-0.4754211712375283
1715194781394207200,0.300207275390625,-0.24736498754024505,0.7476724704921245,0.12534881954714655
1715194781404281000,0.310281005859375,-0.4411147047489881,1.1656513604559005,0.4755146947398782
1715194781414355200,0.320355224609375,-0.5181348160654307,1.4104916518241166,0.6239589970618487
1715194781424429000,0.330428955078125,-0.02906535096466541,1.5832997032910585,0.37958208542168137
1715194781434504200,0.340504150390625,0.6112783791869878,1.9692453323952852,-0.07065846733003854
1715194781444578000,0.350578125,1.070235614618659,2.642222481256723,-0.14875760605484245
1715194781454652400,0.36065234375,1.5101888743728398,3.3007910194069146,-0.13484189342707395
1715194781464727000,0.37072705078125,1.6183546500593422,4.063817710897326,0.018098551270365713
1715194781474801400,0.380801513671875,1.5798533622294664,4.614406935843825,0.49192748488038773
1715194781484875300,0.390875244140625,1.5657827513009308,4.729414540249109,0.7231374564334749
1715194781494949400,0.400949462890625,1.649815956249833,4.440190186622739,0.5768608535394072
1715194781505024300,0.411024169921875,1.8086030811488627,3.8024171837419267,0.0003159340813755989
1715194781515098400,0.421098388671875,1.823902941611409,3.4814573831588027,-0.5857277583450079
1715194781525172200,0.431172119140625,1.6302040778070688,3.5181536673933267,-0.8347323297858238
1715194781535247400,0.441247314453125,1.0996493406295775,3.511867718991637,-0.7768059182569385
1715194781545321200,0.4513212890625,0.4376175102829933,3.2039620457708833,-0.574709228463471
1715194781555395000,0.46139501953125,0.11452186671495437,2.765999667572975,-0.26597119607180353
1715194781565469200,0.47146923828125,0.23976269584298132,2.4247351839773357,-0.407968221950531
1715194781575544300,0.48154443359375,-0.023441665863990782,1.5745339207723736,-1.0694517707645892
1715194781585618200,0.4916181640625,-0.7062023959845304,0.9141168321460484,-1.8204221137583254
1715194781595692000,0.501692138671875,-1.1624065333157778,0.5821869439329952,-2.4918723453134297
1715194781605767200,0.51176708984375,-1.287919165122509,0.04595547629334032,-2.4757652601212263
1715194781615841000,0.521841064453125,-1.260117550483346,-0.9461945897344499,-1.4113140741229055
1715194781625915400,0.531915283203125,-1.3589227926284073,-1.8437386919379233,-0.2589493346109986
1715194781635989200,0.5419892578125,-1.4267442829668522,-1.8858111162528395,0.5552326668381691
1715194781646064400,0.552064453125,-1.8696540544390676,-1.6223936963170766,0.9567632569566369
1715194781656138200,0.56213818359375,-2.45054314058125,-1.0913660078655927,1.4409955111593007
1715194781666212400,0.57221240234375,-2.342525833454728,-0.5141168125957251,1.7869319320887327
1715194781676287200,0.582287353515625,-2.297478484982252,-0.7481045052338391,1.5065303518652915
1715194781686361300,0.592361328125,-2.5676515166580676,-1.1916619269598274,0.9313029447466135
1715194781696435200,0.602435302734375,-1.6150848346084354,-1.2762193749785422,0.5995747896507382
1715194781706509300,0.61250927734375,-0.4315145172327757,-1.6666297284066676,0.3973401526913047
1715194781716584200,0.622584228515625,0.14542729258835316,-2.246254493701458,0.3827382113650441
1715194781726658300,0.632658203125,0.3395312300622463,-2.5532930286988615,0.5187082320392131
1715194781736732200,0.642732177734375,0.10028934322297572,-2.7804040405005215,0.7029229359224438
1715194781746807300,0.652807373046875,-0.3084299893558025,-2.9289389437153934,0.9714321260392665
1715194781756881200,0.662881103515625,-0.46526481114327906,-3.05198869253993,1.1532006058141588
1715194781766955300,0.672955322265625,-0.5282037901371717,-3.2636125046133992,1.3186214696392415
1715194781777029400,0.683029296875,-0.38694296957850455,-2.4753464501872657,1.297294603972137
1715194781787104300,0.693104248046875,0.7944511728018522,-1.1042773657564073,1.1678151143610476
1715194781797178400,0.703178466796875,3.192328306600451,-0.12482114241123199,0.6176333011716604
1715194781807252200,0.713252197265625,4.65201390518248,0.23761487015932797,0.4521968013860285
1715194781817326300,0.723326416015625,9.896794965827464,1.3141644902303815,-0.7758810584969819
1715194781827401200,0.733401123046875,-0.20873510489463806,1.4463912327229975,-3.182438196226954
1715194781837475300,0.743475341796875,-23.05000112658739,-2.2120678542003036,-4.206276509068906
1715194781847549200,0.753549072265625,-7.304895727619528,1.0290358814850449,-1.5120251498892903
1715194781857624300,0.763624267578125,6.717293992096185,1.6754247370198367,2.102111687965691
1715194781867698200,0.7736982421875,4.242387979152799,-0.5743325771708041,1.56271181942299
1715194781877772300,0.783772216796875,2.550859371811151,-0.9294061712145805,0.35117695193141696
1715194781887847200,0.79384716796875,1.2388234180420636,-0.11570899414028972,0.07284092593565583
1715194781897921300,0.80392138671875,-0.714026805999875,0.23880477406363934,0.21020225483775137
1715194781907995100,0.8139951171875,-2.4949539447158573,0.05467532817791216,-0.45118850112631914
1715194781918069200,0.8240693359375,-4.058241956591606,-0.10193874526466243,-1.113828745694831
1715194781928144100,0.83414404296875,-4.47327237201333,0.38920200055167076,-0.7344410868667066
1715194781938218200,0.84421826171875,-2.3001357214927673,1.04570907612741,-0.1649625986635685
1715194781948292400,0.854292236328125,1.6147773760944604,0.69982949995175,-0.40984819047823545
1715194781958366200,0.8643662109375,3.5608600056976076,-0.25232710345964876,-0.5728603857263922
1715194781968441300,0.87444140625,4.062529424652457,-0.5210314508223906,-0.11386471798047423
1715194781978515200,0.88451513671875,3.6275370021760462,-0.6313903891716152,0.2645624252524227
1715194781988589300,0.89458935546875,1.8601117345899343,-0.4524729514462873,0.48514030895829197
1715194781998664200,0.904664306640625,-0.2532534610569477,-0.13215689212679863,0.47293432285785675
1715194782008738300,0.91473828125,-1.7173726581722497,0.008561967042274772,0.16145108341127634
1715194782018812200,0.924812255859375,-2.0139701709151265,0.08450363547224551,-0.21569749125316737
1715194782028886500,0.934886474609375,-1.2471475942730903,0.07500880802664905,-0.38725612718090413
1715194782038961700,0.944961669921875,-0.11695581586360931,-0.05653587048593908,-0.25674612547829745
1715194782049035500,0.955035400390625,0.5081915141999721,-0.0628811478594318,0.010395064220950007
1715194782059109600,0.965109619140625,0.4600158045738935,0.03971066361963749,0.3185210291288793
1715194782069184500,0.9751845703125,-0.08785013288855552,0.021252444157446735,0.31419213307909666
1715194782079258600,0.985258544921875,-0.5823743562638759,0.020416943181375973,0.10237703621722757
1715194782089332500,0.99533251953125,-0.7956371677160262,-0.01311846130285412,-0.1559022171124816
1715194782099406600,1.005406494140625,-0.5678805514872074,-0.11071410846244543,-0.25971162422038613
1715194782109481500,1.0154814453125,-0.16107202096581458,-0.14513382606711236,-0.14585896200388668
1715194782119555600,1.0255556640625,0.10080138439834117,-0.24188984406478703,-0.030673443748429417
1715194782129629700,1.035629638671875,0.20198679967820643,-0.3406101478727534,0.045109965379908676
1715194782139704600,1.04570458984375,0.2020487589985132,-0.2856414536383003,0.17052622414007781
1715194782149778700,1.05577880859375,0.15580197160840034,-0.2135103564724326,0.2027837952747941
1715194782159852500,1.0658525390625,0.2234814231276512,-0.14564740161243825,0.10289053869731724
1715194782169926700,1.0759267578125,0.327813904261589,-0.12910616278667003,0.03560498186647892
1715194782180001500,1.08600146484375,0.2471925535827875,-0.07587248478443362,-0.0011637100171297788
1715194782190075600,1.09607568359375,-0.008818097227811813,-0.091554796092771,0.0391699808716774
1715194782200149500,1.1061494140625,-0.1421574771374464,-0.14375907624834217,0.12087335463352501
1715194782210224600,1.116224609375,-0.18478022881150244,-0.16062533664423972,0.2752928589075804
1715194782220298500,1.126298583984375,-0.18631226068437098,-0.1894595457341522,0.4566306921802461
1715194782230372600,1.13637255859375,-0.28453882615864273,-0.26901834521535783,0.600623421920836
1715194782240446500,1.146446533203125,-0.3890349734216928,-0.4247638739287853,0.5336556258022784
1715194782250521600,1.156521484375,-0.1419827050924301,-0.5454737085636705,0.1733459577359259
1715194782260595500,1.166595458984375,0.35511925981640813,-0.34584077853523193,-0.22548406818695366
1715194782270669600,1.176669677734375,0.5135568406254053,0.009657361063547433,-0.3797545193791389
1715194782280743700,1.18674365234375,0.11176409243941307,0.17070936215464025,-0.2446292789660394
1715194782290818800,1.19681884765625,-0.3802583772480488,0.13342146870251745,-0.022106763998419043
1715194782300892700,1.206892578125,-0.39488019231855864,-0.07582903836835175,-0.0007752221561968326
1715194782310966500,1.216966552734375,-0.014641688814759253,-0.11150054613240062,0.007402531341463327
1715194782321041700,1.227041748046875,0.2966144638776779,-0.1626369687275961,-0.009413140511512756
1715194782331115500,1.237115478515625,0.339112127867341,-0.15563457915224135,0.009161284642294048
1715194782341189600,1.247189697265625,0.20052081877887248,-0.11650774330254643,0.03232172241210937
1715194782351263500,1.257263427734375,0.02786941917836666,-0.09383987482264637,0.08741429875455796
1715194782361338600,1.267338623046875,-0.11203764868378639,-0.0445349419709295,0.07033829546496272
1715194782371412500,1.27741259765625,-0.14747487276792526,-0.03965806121614296,0.039009310417249796
1715194782381486600,1.287486572265625,-0.08074234670996666,-0.08036894682031125,0.04416223620101809
1715194782391561500,1.2975615234375,0.045783261531591415,-0.14201942037362605,0.022051818940788507
1715194782401635600,1.307635498046875,0.1122504146516323,-0.10373320006653666,0.04663344862014055
1715194782411709400,1.31770947265625,0.0015887304961681365,-0.03164484606385231,0.050136342174559825
1715194782421783800,1.32778369140625,-0.09435469247698783,-0.03935512818023562,-0.029127018024027347
1715194782431858400,1.3378583984375,-0.11705460006296634,-0.06498166380263865,-0.012104863813519478
1715194782441932800,1.347932861328125,-0.06130231770277023,-0.06537026126142591,-0.010834551616758108
1715194782452006700,1.358006591796875,0.018370353949069974,-0.16031491898819802,-0.018286767318844793
1715194782462081800,1.368081787109375,0.06623217532038689,-0.2084065670600161,0.012699176444858311
1715194782472155600,1.37815576171875,0.0037631519258022306,-0.09652480305768549,0.11043284383565187
1715194782482229500,1.3882294921875,-0.09397475324869155,-0.10793109014779328,0.04167597234323621
1715194782492303600,1.3983037109375,-0.04096972377002239,-0.14029519039690494,0.04621346964240074
1715194782502378500,1.40837841796875,0.0787754305511713,-0.13357001032773405,0.0814076787509024
1715194782512452600,1.41845263671875,0.07535130132138729,-0.0908325827654451,0.06587218290157616
1715194782522526500,1.4285263671875,-0.02117781258523464,-0.06370046488568186,0.01765709111317992
1715194782532600600,1.4386005859375,-0.0809276401489973,-0.05379946779198944,-0.03182955498099327
1715194782542675500,1.448675537109375,-0.04339490509033203,-0.09102211398817599,-0.03571604102551937
1715194782552749600,1.45874951171875,0.014842179822921752,-0.14428499068543313,-0.0032610476225614546
1715194782562823400,1.468823486328125,-0.013543372184038161,-0.1407635385610163,0.051367783665657044
1715194782572898600,1.478898681640625,-0.09757248547971248,-0.10738204143028705,0.06827602917291224
1715194782582972400,1.488972412109375,-0.10372107123732566,-0.13115816341303288,0.026408625910803674
1715194782593046800,1.499046875,0.04857318451106548,-0.11360822246875613,-0.06738982092291117
1715194782603120600,1.50912060546875,0.10147826074659824,-0.009466516949853393,-0.03642733110003173
1715194782613195800,1.51919580078125,-0.08240764957368374,0.013340689218789338,0.016516615841165184
1715194782623269600,1.52926953125,-0.09371873266100883,-0.05429799189865589,0.01631101026646793
1715194782633343500,1.539343505859375,0.033957799181342126,-0.15084807552807034,0.04005443555600941
1715194782643418600,1.549418701171875,0.114755675470829,-0.15577292817700653,0.06557451512925326
1715194782653492700,1.55949267578125,0.05772913539111614,-0.17839710364565253,0.03755136669389903
1715194782663566600,1.569566650390625,-0.03293371683061123,-0.20544746152609586,0.048152913272380825
1715194782673640400,1.579640380859375,-0.03647533496022224,-0.11279241257384419,0.016601152319461108
1715194782683715600,1.589715576171875,0.013757891717553138,-0.10930055187009274,-0.055339025384187696
1715194782693789400,1.59978955078125,0.05855214221179485,-0.13793799627888947,0.010518617535382508
1715194782703863600,1.609863525390625,0.02950549594759941,-0.12022479106429963,0.062259910688549275
1715194782713937400,1.6199375,-0.011008885270357132,-0.10365940417796372,0.05310512885227799
1715194782724012500,1.630012451171875,0.01099368770122528,-0.13155472498256712,0.008424129474163055
1715194782734086400,1.64008642578125,0.057065703046321865,-0.12163389067724346,0.025737375585734842
1715194782744160800,1.650160888671875,0.011087211203575134,-0.10028251162339001,0.061641778790205715
1715194782754235400,1.6602353515625,-0.039054245537519454,-0.13635646270848809,0.009921090033650397
1715194782764309800,1.670309814453125,0.033089199653267856,-0.13251714027393607,0.00014598434194922446
1715194782774383600,1.680383544921875,0.07362579270303249,-0.08204345590379089,0.004867606036365032
1715194782784457700,1.690457763671875,-0.005630699363350868,-0.07717716504167765,0.03391279099583626
1715194782794532600,1.70053271484375,-0.08822714950740337,-0.10484174583032727,0.05241290880441665
1715194782804606700,1.710606689453125,-0.061037529286742206,-0.09821735925450921,0.06424947707057
1715194782814680600,1.7206806640625,0.04335808021128178,-0.09866597980484366,0.03707812315896153
1715194782824754400,1.73075439453125,0.047564299729466436,-0.09848492414951324,-0.02503317283913493
1715194782834829600,1.74082958984375,0.025629531297087668,-0.08043846839256584,-0.0032553485341370106
1715194782844903400,1.7509033203125,0.01323883627951145,-0.08626724761128425,-0.0066610653243958946
1715194782854977500,1.7609775390625,0.022236381727457045,-0.077212638213858,-0.030645898154377935
1715194782865052400,1.771052490234375,0.018146482065320015,-0.0954231254260987,-0.030261282750964163
1715194782875126500,1.78112646484375,0.007699906852841377,-0.0955439022615552,-0.01566416373029351
1715194782885200400,1.791200439453125,0.013837386694550513,-0.07149111876189708,0.0368443144030869
1715194782895274800,1.801274658203125,-0.021249124255776405,-0.08713497035652398,0.044875937428325414
1715194782905349400,1.811349365234375,-0.017153379374742508,-0.1168119504135102,0.023309563916921613
1715194782915423700,1.821423828125,0.021156185275316236,-0.08151355027817189,0.0066829848952591414
1715194782925497600,1.83149755859375,0.029345921471714973,-0.09470014491379261,0.03512669683024287
1715194782935572700,1.84157275390625,0.006804419317841529,-0.10102540241256355,0.04260083210319281
1715194782945646600,1.851646484375,0.01865560063123703,-0.09532667931430042,0.05220671870782971
1715194782955720700,1.861720703125,0.011337386572360992,-0.11040427532829343,0.04621902260035276
1715194782965794600,1.871794677734375,0.033761984348297115,-0.09603811551928519,0.03376563761010766
1715194782975869700,1.88186962890625,0.014298574465513228,-0.08248933650776744,0.03395034652724862
1715194782985943600,1.891943603515625,-0.022960019826889038,-0.10295746645368635,0.026409868019819257
1715194782996017400,1.902017333984375,-0.0014735796838998795,-0.1285247461695224,0.014862638089060782
1715194783006091500,1.912091552734375,0.016729016482830046,-0.10694522091560064,0.001151215861737728
1715194783016166700,1.922166748046875,0.008983516922593117,-0.10188311522044241,0.0035221827767789363
1715194783026240500,1.932240478515625,-0.03147650375962257,-0.1235385552547872,-0.012347148136794566
1715194783036314400,1.942314453125,-0.04457505478560924,-0.08936119503863155,0.014154343689233065
1715194783046388200,1.95238818359375,-0.021455460482835767,-0.09164930597580968,0.03043050183802843
1715194783056463400,1.96246337890625,-0.018322423154115676,-0.1077947504170239,0.011497837831079959
1715194783066537200,1.972537109375,-0.010530161842703818,-0.11277918776609003,0.018746932176500558
1715194783076611300,1.982611328125,-0.013382044142484664,-0.1131158723745495,0.03961392524689436
1715194783086686200,1.992686279296875,0.012444471031427382,-0.1042951447982341,0.04890285485684871
1715194783096760300,2.00276025390625,0.022674773144721983,-0.0950646673772484,0.014010405173897742
1715194783106834200,2.012834228515625,0.01688917548060417,-0.09594532266929745,0.02374664015993476
1715194783116908300,2.022908203125,0.02082183875441551,-0.09015643706955015,0.022620412608981132
1715194783126983200,2.032983154296875,0.010251929423213004,-0.09870222016200422,0.010923691204935311
1715194783137057300,2.043057373046875,0.008390227204561233,-0.08015292944945394,0.0002053133137524128
1715194783147131100,2.053131103515625,0.004347673815488815,-0.07067563766054809,-0.0071107087880373
1715194783157206300,2.063206298828125,-0.015695581781864164,-0.08029781781286001,0.018412001133710144
1715194783167280000,2.073280029296875,-0.031145664370059965,-0.10573409156017005,0.028123101678490636
1715194783177354000,2.08335400390625,0.0069482117027044295,-0.09677417470887303,0.032345833940058945
1715194783187428400,2.093428466796875,0.016041618740558622,-0.0831952197548002,0.0049267888776957985
1715194783197503000,2.1035029296875,-0.01182721591591835,-0.0763229228325188,-0.0007877893768250941
1715194783207577300,2.113577392578125,0.018671967244148255,-0.07526325771175324,-0.003728665134310722
1715194783217651200,2.123651123046875,0.03630991526544094,-0.07012392206192017,-0.00029109190106391906
1715194783227725300,2.133725341796875,0.03554828324317932,-0.07309804250188172,0.012523966008424758
1715194783237800200,2.14380029296875,0.006951134312152862,-0.06442950981259346,0.016832476857304574
1715194783247874300,2.153874267578125,-0.007774141132831573,-0.10033683562651276,0.03539864563941955
1715194783257948200,2.1639482421875,0.0017471359282732008,-0.11020466110296546,0.023849369882047174
1715194783268022300,2.174022216796875,0.013353402569890021,-0.09035817018672823,0.011921031679213046
1715194783278097200,2.18409716796875,0.02567512400448322,-0.08389423486962914,0.002633563373982906
1715194783288171300,2.194171142578125,0.02652618787586689,-0.0756822137761861,-0.015870938348770142
1715194783298245000,2.2042451171875,-0.0022030630022287366,-0.09488003152534365,0.010602350296080112
1715194783308320300,2.2143203125,0.0010831190615892409,-0.0923825886864215,-0.0016254092447459698
1715194783318394000,2.22439404296875,-0.00859773247539997,-0.09636435179896652,0.02914806081205606
1715194783328468000,2.234468017578125,-0.0037912089765071866,-0.11745061364322901,0.05759074983373284
1715194783338542300,2.244542236328125,-0.016096563798189162,-0.11129033744782209,0.04363631263077259
1715194783348617200,2.2546171875,0.02231587670445442,-0.10477686390057206,0.04157324262112379
1715194783358691300,2.26469140625,0.01902151133418083,-0.10793759295381605,0.02947013237327337
1715194783368765200,2.27476513671875,0.00869534763097763,-0.10837686115391552,0.0620966829508543
1715194783378839300,2.28483935546875,-0.014436521631479262,-0.09235058611296117,0.07353782215863466
1715194783388914200,2.2949140625,-0.03192190943956375,-0.08480893856175244,0.012852321179956197
1715194783398988300,2.30498828125,-0.013398995277285575,-0.09136362090222537,-0.002169891384989023
1715194783409062100,2.315062255859375,-0.0014244798451662063,-0.09420169387236237,-0.030328795029222963
1715194783419137300,2.32513720703125,-0.026847090393304823,-0.09073131434805691,-0.07279431031495333
1715194783429211100,2.335211181640625,0.006627893707156181,-0.06912643545717001,-0.09813114227578043
1715194783439285200,2.34528515625,-0.0024421324551105496,-0.06835377058424055,-0.04732449962422251
1715194783449359000,2.355359130859375,-0.028982348856329915,-0.06212963537238538,0.02309504438340664
1715194783459434200,2.365434326171875,-0.04315174398422241,-0.056079541553184384,0.024748949070274827
1715194783469508000,2.375508056640625,0.010445990690588951,-0.0815364927623421,0.020261866784095764
1715194783479582200,2.385582275390625,0.024416648375988004,-0.07074015426412224,0.026788784334808587
1715194783489656300,2.39565625,0.011256722551584244,-0.09377228947915137,0.02155059142038226
1715194783499731200,2.405731201171875,0.017485972329974172,-0.10968326757736503,0.03429682187736034
1715194783509805300,2.415805419921875,0.01843640492260456,-0.09689465928338467,0.03883183495849371
1715194783519879200,2.425879150390625,0.016716741523146627,-0.09894180107153952,0.007726210337877273
1715194783529953300,2.435953369140625,0.047663668450713154,-0.07960662067830562,-0.0012874094620347022
1715194783540028200,2.446028076171875,0.021286533656716344,-0.08626213304474949,0.013745616757869719
1715194783550102300,2.456102294921875,-0.004228431349992752,-0.07400938519313931,0.02575403445959091
1715194783560176000,2.466176025390625,-0.010570493853092193,-0.06400032461509109,0.012928747417032718
1715194783570251300,2.476251220703125,0.010216273587942123,-0.08954531943388283,0.008740940338373185
1715194783580325000,2.4863251953125,0.002703413739800453,-0.07726371081396936,0.009629413610696792
1715194783590399200,2.496399169921875,-0.0070996028721332545,-0.06930961000435054,-0.006642360623925924
1715194783600473000,2.50647314453125,0.03205225782096386,-0.07795403116568922,-0.00034559856727719307
1715194783610548200,2.51654833984375,0.028111995762586592,-0.09262574979253113,-0.0011120528951287269
1715194783620622000,2.5266220703125,0.021899112597107886,-0.08477306353077292,0.03066065733209252
1715194783630696200,2.5366962890625,0.004991232416033745,-0.10080343022495508,0.03813537712693214
1715194783640770300,2.546770263671875,0.008410100948810577,-0.10108590042814612,0.01272211892902851
1715194783650845200,2.55684521484375,-0.004627659800648689,-0.08239844335392117,0.007781301525980233
1715194783660919300,2.566919189453125,-0.045074821001291274,-0.09762545777596533,0.035665918273478744
1715194783670993200,2.5769931640625,-0.014915245059132574,-0.06741488229893147,0.007455868963897228
1715194783681068300,2.587068359375,-0.007740823385119438,-0.07904796388223767,0.025922376763820646
1715194783691142100,2.59714208984375,-0.01774842265844345,-0.07878734018467366,0.04239814913794398
1715194783701216300,2.60721630859375,-0.0067681789606809616,-0.06202924373783171,0.01518105638846755
1715194783711290000,2.6172900390625,-0.04163257159292698,-0.07416486801579594,0.0065488371215760705
1715194783721365200,2.627365234375,-0.031790392014384265,-0.09021941930316388,0.0007221767947077751
1715194783731439000,2.637439208984375,-0.006374211207032203,-0.08636120950505137,-0.002198825218528509
1715194783741513200,2.64751318359375,0.000028057050704956055,-0.09142360746115445,0.003333820597827434
1715194783751587000,2.657587158203125,0.030834114202857015,-0.10617905884869396,-0.04420519855991006
1715194783761662200,2.667662109375,0.07849369100034237,-0.11019348212182521,-0.01436959387511015
1715194783771736000,2.677736083984375,0.03861410055458545,-0.07363448746614158,0.08027063754498959
1715194783781810200,2.68781005859375,-0.05984919628500938,-0.06853745658807456,0.13909341339170933
1715194783791884300,2.69788427734375,-0.036685762840509416,-0.08325754440128803,0.06836275760829448
1715194783801959200,2.707959228515625,0.04728372922241687,-0.09814948165006936,-0.08863689935207367
1715194783812033300,2.718033203125,0.12013853755295276,-0.08644998376704752,-0.05759118822515011
1715194783822107400,2.728107421875,-0.008729834422469138,-0.08857815490216016,0.044438715054839845
1715194783832181200,2.73818115234375,-0.06574176145493983,-0.09891513226032257,0.07346738727092743
1715194783842256400,2.74825634765625,-0.007965279790759085,-0.08586158941984176,0.034883827985078095
1715194783852330200,2.758330322265625,0.04332476246356964,-0.07058226028867065,-0.02525587567910552
1715194783862404000,2.768404052734375,0.055180035430192946,-0.07966770321577787,-0.02503916418850422
1715194783872479200,2.778479248046875,0.009468085569143294,-0.08119352454356848,0.03616436931490898
1715194783882553000,2.788552978515625,-0.008663783448934554,-0.06361037544943392,-0.012867811010032891
1715194783892627200,2.798627197265625,0.05202420174777508,-0.0751347359612584,-0.04614712640792131
1715194783902701000,2.808701171875,0.0712812754034996,-0.08735752706602215,-0.0167212715677917
1715194783912776200,2.818776123046875,0.019258827221393583,-0.07942249628305435,0.001130611465126276
1715194783922850000,2.82885009765625,0.007442132699489593,-0.07135412144400179,0.003190320473909378
1715194783932924200,2.838924072265625,0.04976502464413642,-0.0665644760146737,0.019097206918895243
1715194783942998300,2.848998291015625,0.08017243786752223,-0.06591616817377507,0.06132467566505074
1715194783953073200,2.8590732421875,0.043241760355234145,-0.08102562063075601,0.028407909969240426
1715194783963147300,2.869147216796875,0.13340952253639698,-0.06903466552048922,-0.05287205074876546
1715194783973221400,2.879221435546875,0.15162205557525157,-0.06150017836242914,-0.08515928636938333
1715194783983295200,2.889295166015625,0.06938800900280476,-0.0913463044412434,-0.027620412853360175
1715194783993370400,2.899370361328125,-0.12110358319282531,-0.10838321782946586,0.03180763541013002
1715194784003444200,2.9094443359375,-0.24027532154023645,-0.07881634708344935,0.07985752669945359
1715194784013518000,2.91951806640625,-0.18231822261214256,-0.07196202420927583,0.0621371610917151
1715194784023593200,2.92959326171875,-0.05915361523628235,-0.05113448636643588,-0.0051142742738127705
1715194784033666600,2.93966650390625,-0.01854746408164501,-0.05228825951144099,-0.006399491778761148
1715194784043740400,2.949740478515625,-0.0023527006059885025,-0.060532283178344366,0.026590046892315148
1715194784053814500,2.959814453125,0.004355857121944427,-0.058367214098945255,0.02337926815226674
1715194784063889400,2.969889404296875,0.06497136160433292,-0.05710318551249802,0.0017648177154362202
1715194784073963500,2.979963623046875,0.061707975894212716,-0.06577982844300567,-0.004566723393648863
1715194784084037600,2.99003759765625,0.04314180711209774,-0.08509071464519948,0.04298661655038595
1715194784094111700,3.00011181640625,0.003990530940890312,-0.09235442203786223,0.06440729798078537
1715194784104186600,3.0101865234375,0.009978957700729369,-0.07954495361894369,0.06154065650328994
1715194784114260700,3.0202607421875,0.01713409015238285,-0.08562500418499111,0.03317717019766569
1715194784124334600,3.03033447265625,0.03476970008611679,-0.08742653718162327,0.027654753514379262
1715194784134408700,3.04040869140625,0.009449380868673325,-0.06796312729883938,0.01637713430523872
1715194784144483600,3.050483642578125,-0.01664484533071518,-0.08893675908148288,0.0023109072908759115
1715194784154557700,3.0605576171875,-0.0167921448469162,-0.06698226303532719,-0.04424377700462937
1715194784164631600,3.070631591796875,0.01702244647145271,-0.05494699385929852,-0.054065059925615784
1715194784174705400,3.080705322265625,0.014869652351737022,-0.0764133775949478,0.03709259007573128
1715194784184780500,3.090780517578125,-0.04789513911902904,-0.09405874173771589,0.035815994268655775
1715194784194854400,3.1008544921875,0.01862286740541458,-0.05362991991136223,-0.07239303603768349
1715194784204928500,3.110928466796875,0.07238426820933819,-0.0716593149356544,-0.037827480221539735
1715194784215003600,3.121003662109375,0.02782674908041954,-0.08467460812497883,0.03312544001042843
1715194784225077500,3.131077392578125,-0.03024082448482513,-0.07267758860010654,0.022267799779027698
1715194784235151600,3.141151611328125,-0.002039396873116493,-0.0872268498910591,-0.0040161037735641
1715194784245225700,3.151225830078125,0.033169279152154924,-0.08439067661706358,0.025264935768395662
1715194784255300600,3.161300537109375,-0.01993044287264347,-0.07150025191642344,0.03272854964733123
1715194784265374700,3.171374755859375,-0.025736498802900312,-0.06285097191687673,0.014986410599201918
1715194784275448600,3.181448486328125,0.034711832419037816,-0.07824906858950853,0.019217910689115523
1715194784285522700,3.191522705078125,0.031101240706443784,-0.08136690834909677,0.012931377765536307
1715194784295597600,3.20159765625,-0.00029927520751953123,-0.061982774247601624,-0.007299070966988802
1715194784305671700,3.211671630859375,0.019904139387607572,-0.06526943123545498,-0.01644625401869416
1715194784315745500,3.22174560546875,0.026634908947348594,-0.07860511548556387,-0.014927812279760836
1715194784325819600,3.231819580078125,0.012274959683418274,-0.07325564421638846,-0.013474252470582723
1715194784335894500,3.24189453125,0.0078057053148746485,-0.07208049948979169,0.009114011434465646
1715194784345968600,3.25196875,0.016820201897621154,-0.07130874793231487,0.008676350669562816
1715194784356042500,3.26204248046875,0.004563362392783165,-0.06796623257137835,0.04328413819223642
1715194784366117600,3.27211767578125,-0.008116086438298226,-0.0758489486452192,0.01918093967959285
1715194784376191700,3.282191650390625,-0.004190437427163123,-0.08044478853549808,0.007229805123060941
1715194784386265600,3.292265625,-0.005956278055906296,-0.05828260455541313,0.03049187663644552
1715194784396339700,3.302339599609375,-0.000685059654712677,-0.07556373849567026,0.015858955650031564
1715194784406414600,3.31241455078125,0.0035386955201625824,-0.07661237076576799,0.01454451205059886
1715194784416488700,3.32248876953125,0.013003858479857444,-0.06533891627509146,0.01948489106222987
1715194784426562600,3.3325625,0.02153729354739189,-0.06434460800811648,0.01870119333863258
1715194784436636700,3.34263671875,0.020064882907271386,-0.0626806933838874,0.00804024472311139
1715194784446711600,3.352711669921875,0.0169575645416975,-0.06984207291323691,-0.010344137751311063
1715194784456785700,3.36278564453125,0.011443185034394263,-0.06927413683217018,0.015810148072242736
1715194784466859500,3.372859619140625,0.007120061138272285,-0.06725735364966094,-0.006761603089421987
1715194784476933600,3.38293359375,0.01908990039527416,-0.07517422772143036,0.025266835464537143
1715194784487008500,3.393008544921875,0.02194996600151062,-0.08848127039894461,0.00044321372285485266
1715194784497082600,3.40308251953125,0.00027355624437332154,-0.07160455254111439,0.0034163843147456646
1715194784507156700,3.41315673828125,0.004321370330452919,-0.06340740022324025,0.024904578023403883
1715194784517230600,3.423230712890625,0.008047112855315208,-0.06456563034765422,0.0007806289836764335
1715194784527305700,3.4333056640625,0.018526421293616292,-0.08028185305874794,-0.0067390989966690535
1715194784537379600,3.443379638671875,0.0027051673054695126,-0.06540321368295698,0.012848521787673234
1715194784547453700,3.45345361328125,0.01694528958201408,-0.056679078348912296,0.004571837960183621
1715194784557527600,3.463527587890625,-0.001585223364830017,-0.07998973824437708,0.009915683206170797
1715194784567602700,3.473602783203125,0.002028290957212448,-0.06827080500852316,0.02380553074032068
1715194784577676500,3.483676513671875,0.008938508737087248,-0.07833451838325708,0.007131459315121174
1715194784587750700,3.493750732421875,0.012841361394524574,-0.06491342087201774,0.004190291296690702
1715194784597825500,3.503825439453125,0.022121230915188788,-0.05408844080120325,-0.006749035868793726
1715194784607899600,3.513899658203125,0.017509937727451325,-0.06480484593100845,0.012785393423587083
1715194784617973500,3.523973388671875,-0.005059036955237389,-0.0642677433796227,0.03188113903775811
1715194784628047600,3.534047607421875,0.007666589105129242,-0.06433211385272443,0.011929799507558346
1715194784638122500,3.54412255859375,0.020109306570887563,-0.05882339690122753,0.022823826226592063
1715194784648196600,3.554196533203125,0.01158931550681591,-0.06140581460986286,0.013170154957473278
1715194784658270700,3.564270751953125,0.005910685348510742,-0.06061181468795985,-0.019211042556911705
1715194784668344600,3.574344482421875,0.016544307565689087,-0.06430204750802368,-0.0068697396390140055
1715194784678419700,3.584419677734375,0.012341595178842544,-0.07134020251650362,0.02734481078237295
1715194784688493800,3.594493896484375,0.00037760114073753353,-0.06756441030483692,0.007688070284575224
1715194784698567700,3.604567626953125,0.013110825985670089,-0.0687868647718802,-0.003943476928770542
1715194784708641500,3.6146416015625,0.010565233156085013,-0.05634502408895641,0.016117314325273035
1715194784718716700,3.624716552734375,-0.0011029928058385848,-0.06449000782817602,0.0069591714881360525
1715194784728790500,3.63479052734375,0.0008422960430383682,-0.05675057268254458,0.01414163033813238
1715194784738864600,3.64486474609375,0.017752514311671255,-0.06371712375953793,0.017872049038112164
1715194784748938500,3.6549384765625,0.012525135052204131,-0.06369505805820226,0.010160890138894318
1715194784759013600,3.665013671875,0.01464227333664894,-0.06565605593286454,-0.01261018298715353
1715194784769087500,3.67508740234375,0.00926876360476017,-0.06660531948171555,0.004041530475765467
1715194784779161600,3.68516162109375,0.011657120046019553,-0.06381181630566715,-0.0024934242509305478
1715194784789236500,3.695236572265625,0.013906944799423218,-0.0709221232349053,0.0024018004447221753
1715194784799310600,3.705310546875,0.0038882396101951595,-0.07567048680577426,0.011021306360512972
1715194784809384700,3.715384765625,-0.004025017732381821,-0.0656550330195576,-0.004232376872748136
1715194784819458800,3.725458740234375,-0.0004196867167949676,-0.052442354094609615,0.010615355908125639
1715194784829533700,3.73553369140625,-0.0052162733435630795,-0.07807513679470866,-0.002485825466364622
1715194784839607800,3.74560791015625,0.007963526225090027,-0.0665961497945711,0.007147241406142711
1715194784849681700,3.755681640625,0.0012292495340108871,-0.04648348222281783,0.027497078734636304
1715194784859755500,3.765755615234375,0.005129764103889465,-0.04935987790934741,0.004969751236587763
1715194784869830700,3.77583056640625,0.023388474372029303,-0.06644771776720881,-0.0010362111799418925
1715194784879904500,3.785904541015625,-0.0009849193841218948,-0.06104823334384709,0.012440963900089263
1715194784889978600,3.795978515625,-0.0054752165406942365,-0.05508095896989107,0.006761749219894409
1715194784900052500,3.806052490234375,0.00860474673807621,-0.06453019370809197,0.00022138766571879387
1715194784910127600,3.816127685546875,0.01714461154639721,-0.04695325515903532,-0.01019376949518919
1715194784920201500,3.826201416015625,0.02375847672820091,-0.055770475604012604,0.002886807482689619
1715194784930275600,3.836275634765625,0.017948329144716262,-0.05994564239680767,0.025875907273590563
1715194784940349700,3.846349609375,-0.01678103893101215,-0.052657056291215115,0.006980506537109613
1715194784950424600,3.856424560546875,0.008510054191946982,-0.05765270915403962,-0.002170037515461445
1715194784960498700,3.866498779296875,0.024565701457858084,-0.07018847519811243,-0.0061126376613974565
1715194784970572800,3.87657275390625,0.008711714243888854,-0.05149451531786471,0.018820435804128646
1715194784980646700,3.886646728515625,-0.013906944799423218,-0.05342212237957865,0.029777444756776093
1715194784990721800,3.8967216796875,0.003311316505074501,-0.0659939826503396,0.0027589433193206787
1715194785000795600,3.906795654296875,0.03372515946924686,-0.06922134719900787,-0.016089549535512924
1715194785010869500,3.916869384765625,0.009184592452645302,-0.06302391733098775,-0.00442176196500659
1715194785020943600,3.926943603515625,0.002743161228299141,-0.0639477907102555,0.009853285494446754
1715194785031019500,3.93701953125,0.016503975555300712,-0.0649003056621179,0.009446165998280048
1715194785041093400,3.94709326171875,0.01532324133813381,-0.04239661476798355,0.01021510454416275
1715194785051167500,3.95716748046875,-0.005764554876089096,-0.0644230435391888,0.024042992758005855
1715194785061242400,3.967242431640625,0.01429156020283699,-0.06912522988077252,-0.014007044173032045
1715194785071316500,3.97731640625,0.009512509232759475,-0.06040905865747481,0.012253624634444713
1715194785081390300,3.987390380859375,0.006695698246359825,-0.05582059835605323,-0.001868570350855589
1715194785091464400,3.99746435546875,0.011049217280745505,-0.06364990374222397,0.0007104863569140434
1715194785101539300,4.007539306640625,0.0019371055424213409,-0.06399685401637106,0.00028919220492243765
1715194785111613400,4.017613525390625,-0.004905892220139503,-0.07207279110737144,0.001616203024983406
1715194785121687300,4.027687255859375,-0.003989361897110939,-0.06581256166882812,0.0001233341187238693
1715194785131761700,4.03776171875,0.006474748972058296,-0.07039948760028929,-0.00024155367091298102
1715194785141836300,4.047836181640625,0.0030260698229074476,-0.05628609697595238,0.011482640261948108
1715194785151910700,4.05791064453125,0.007521627676486968,-0.05950396304391324,0.005595043528079986
1715194785161984500,4.067984619140625,0.0247305366307497,-0.07462382729705423,-0.0032386896602809427
1715194785172058400,4.078058349609375,0.0037760114073753354,-0.06686382428742944,-0.008136983095854521
1715194785182133500,4.088133544921875,0.003483165940642357,-0.064434551313892,-0.00040434301719069476
1715194785192207400,4.098207275390625,-0.005203413861989975,-0.06566602933760732,0.01147036530226469
1715194785202281500,4.108281494140625,0.009032032239437103,-0.06109678519330918,0.019840864893049
1715194785212355300,4.118355224609375,0.02174479881823063,-0.06278751475922763,-0.00928732217475772
1715194785222430500,4.128430419921875,0.019201544076204297,-0.061740599522180854,-0.0003143266461789608
1715194785232504300,4.13850439453125,0.020405659168958663,-0.060704096081294116,0.015335077906399965
1715194785242578400,4.148578369140625,0.0015507365733385084,-0.05620108557362109,0.01309489776417613
1715194785252652300,4.15865234375,0.0189051914781332,-0.05149528250284493,-0.0015448913544416428
1715194785262727400,4.1687275390625,-0.010412672942876814,-0.059352206548303366,0.003155249160528183
1715194785272801300,4.17880126953125,0.010557049849629402,-0.05970664600916206,0.013318477386981248
1715194785282875600,4.188875732421875,0.014333061257004736,-0.061569078880175945,-0.011799304995685815
1715194785292950300,4.1989501953125,0.006719079121947288,-0.04944667940996587,-0.0055073652446269985
1715194785303024600,4.209024658203125,-0.0062970543175935745,-0.05000592072792351,0.012731617409735918
1715194785313098500,4.219098388671875,0.007478373056650161,-0.06967139252144842,0.010265227296203374
1715194785323172600,4.229172607421875,0.024848610052466392,-0.05540730484742671,-0.0012068915717303751
1715194785333247500,4.23924755859375,0.013187398353219032,-0.057574164025112985,0.014568915839493273
1715194785343321600,4.249321533203125,0.01661854184567928,-0.050895928370207545,0.011808365084975956
1715194785353395500,4.2593955078125,-0.003443418452143669,-0.06125062404815107,0.01563201502636075
1715194785363469300,4.26946923828125,-0.0019335984110832214,-0.073453724071756,0.010737813244014977
1715194785373544400,4.27954443359375,0.00644493835568428,-0.05224803709890693,0.011944850946217774
1715194785383618300,4.289618408203125,0.010642390045523644,-0.04641202442180365,0.011580109287053346
1715194785393692400,4.2996923828125,0.00047054012119770045,-0.0490688225409016,0.006762333741784096
1715194785403766300,4.309766357421875,-0.006854103678464889,-0.06365615081992,0.009845540579408407
1715194785413841400,4.31984130859375,-0.0011643676042556762,-0.04957816030252725,0.015799626678228377
1715194785423915300,4.329915283203125,0.004542904126644134,-0.0715883685912937,-0.001876753657311201
1715194785433989600,4.33998974609375,0.012187281399965286,-0.05483038174230605,0.016874416302889585
1715194785444063500,4.3500634765625,0.0071007719159126275,-0.04307937286775559,0.022104279780387877
1715194785454138600,4.360138671875,-0.014886603486537933,-0.05721541371531784,0.02067950767427683
1715194785464212500,4.37021240234375,0.013706453791260719,-0.06169957339204848,0.009358195453882216
1715194785474286600,4.38028662109375,0.01848082858622074,-0.03705437695719301,0.001986643772572279
1715194785484360400,4.3903603515625,0.010089432337880134,-0.0610557225305587,0.016442308495938775
1715194785494435600,4.400435546875,0.013099135547876357,-0.07168817570395768,0.011216682802140712
1715194785504509400,4.410509521484375,0.002905658313632011,-0.05485091307368129,0.021982260835915802
1715194785514583300,4.420583251953125,0.01682604711651802,-0.049548788077570495,0.01506561331525445
1715194785524657400,4.430657470703125,0.005156067588925361,-0.04866005907692015,0.008916881427168845
1715194785534732300,4.440732177734375,0.009774375039339065,-0.04896094171963632,0.019251959089189766
1715194785544806400,4.450806396484375,0.005886135429143905,-0.06683737467192113,0.013549363533407448
1715194785554880300,4.46088037109375,0.015184125128388404,-0.04874810268655419,0.004258534227311611
1715194785564954600,4.47095458984375,0.019695465072989464,-0.057575406134128565,0.012759089938551186
1715194785575029200,4.481029296875,0.012217092016339302,-0.05526888275742531,0.006144640234857797
1715194785585103600,4.491103515625,0.0005494505763053894,-0.04339169021993875,0.003267038971930742
1715194785595177500,4.501177490234375,0.02540682845711708,-0.048313364531099794,0.002521627432107925
1715194785605252600,4.511252685546875,0.022895722419023514,-0.05034333598874509,0.0013661737866699694
1715194785615326500,4.521326416015625,0.010199322453141212,-0.05341229510530829,-0.003902560396492481
1715194785625400600,4.531400634765625,0.0013794716596603393,-0.0547875289812684,-0.0057720075301826
1715194785635474400,4.541474365234375,0.00659048430621624,-0.06750793087724596,0.004012596642225981
1715194785645549600,4.551549560546875,0.010046177718043326,-0.05531166245322674,0.012579787848889827
1715194785655623400,4.56162353515625,0.01799801350533962,-0.041118630721420045,0.011070552329719065
1715194785665697300,4.571697265625,0.02115267814397812,-0.04752243334911763,0.01725304035693407
1715194785675771400,4.581771484375,0.013955460116267204,-0.05576280375421047,0.0007600245870649815
1715194785685846500,4.591846435546875,0.009760931035876273,-0.04228982992526144,-0.004444119927287101
1715194785695920400,4.60192041015625,0.01799625993967056,-0.04279635467529297,0.016015022994577882
1715194785705994200,4.611994140625,0.006323357802629471,-0.06234605460204184,0.0012042612232267857
1715194785716068600,4.622068603515625,0.008862520891427993,-0.04897939069177955,0.018595541007071732
1715194785726143500,4.6321435546875,-0.007900982382893561,-0.04248462184499949,-0.010554419501125812
1715194785736217600,4.642217529296875,0.00945171895623207,-0.059021842082776124,0.00923500746563077
1715194785746291500,4.65229150390625,0.0062970543175935745,-0.047538763429410755,0.01830678719356656
1715194785756365600,4.662365478515625,0.00869534763097763,-0.05068623114228248,0.00271291222050786
1715194785766440400,4.6724404296875,0.011555413237214087,-0.053257652532868086,0.012451777555048464
1715194785776514600,4.6825146484375,0.010207505759596823,-0.06164185185544192,-0.010880728846043347
1715194785786588400,4.69258837890625,-0.004597849184274673,-0.04401398683674633,-0.003170885121077299
1715194785796662500,4.70266259765625,0.0016980360895395277,-0.053587286346033214,0.0010750818856060504
1715194785806737400,4.7127373046875,0.029066520008444785,-0.056336329325847326,0.012419190459698437
1715194785816811500,4.7228115234375,0.005737666869163513,-0.05399908201731741,-0.00416077294126153
1715194785826885400,4.732885498046875,-0.0075695584714412685,-0.05390486439522355,-0.01337093822658062
1715194785836959500,4.74295947265625,0.0014081132322549819,-0.05588895088452846,0.006531739856302738
1715194785847034400,4.753034423828125,-0.0021668226450681687,-0.05015526607073843,0.009540858544409274
1715194785857108500,4.7631083984375,0.007709259203076363,-0.04556410235557705,-0.008868219979852437
1715194785867182600,4.7731826171875,0.018335867157578466,-0.0464798654936254,0.0017338380552828312
1715194785877256400,4.78325634765625,0.003378536522388458,-0.06273929170332848,0.01844166561961174
1715194785887331600,4.79333154296875,0.01025952820777893,-0.06050948682464659,0.02683510769456625
1715194785897405400,4.803405517578125,0.0012847791135311127,-0.048668278915993866,-0.0010267126992344856
1715194785907479600,4.8134794921875,0.022377836024761198,-0.046654747136496005,0.019823475366830826
1715194785917554400,4.823554443359375,0.01204115092754364,-0.06128361300230026,0.011532909144461154
1715194785927628500,4.833628662109375,0.008141805401444435,-0.05269709604065865,0.012197802793979645
1715194785937702400,4.843702392578125,0.022052841854095458,-0.05662720203120261,0.013579904802143572
1715194785947776500,4.853776611328125,0.010839958444237708,-0.047670098191499706,0.0164957922488451
1715194785957851400,4.863851318359375,0.03418284010887146,-0.0471380736740306,0.011262129379063844
1715194785967925500,4.873925537109375,0.01023731637597084,-0.05968140197005123,0.007545593073964118
1715194785977999400,4.883999267578125,0.01635901412665844,-0.061494808067567644,0.0164728497646749
1715194785988073500,4.894073486328125,0.010381693282723425,-0.0533273202355951,0.007130728662759065
1715194785998148400,4.9041484375,-0.009078209468722342,-0.0576580063836649,-0.013463000424206256
1715194786008222500,4.914222412109375,0.0037853637576103208,-0.0423226727489382,-0.008491349491477012
1715194786018296600,4.924296630859375,0.01606733770370483,-0.041687187856994566,0.014459610246121883
1715194786028370400,4.934370361328125,0.009667992055416106,-0.06183043323010206,0.0035550621330738066
1715194786038444800,4.94444482421875,0.0013023147702217101,-0.04841817661244422,0.02738748088032007
1715194786048519000,4.954518798828125,-0.001983867293596268,-0.052556116667389866,0.04170256808921694
1715194786058592800,4.9645927734375,0.02734744113087654,-0.0410346422323957,0.023729689025133848
1715194786068667000,4.9746669921875,0.03739771050214767,-0.04951970811355859,0.008419014907628298
1715194786078741800,4.98474169921875,0.0038701194316148758,-0.059406165225245056,0.02434153731316328
1715194786088815900,4.99481591796875,-0.020105799439549446,-0.05062010710351169,-0.0000843172825872898
1715194786098889700,5.0048896484375,0.03228782014250755,-0.06073021690323949,-0.006972469361126422
1715194786108963800,5.0149638671875,0.020178280153870583,-0.04105911908652633,0.0207623636521399
1715194786119038700,5.025038818359375,-0.012780571117997169,-0.044624702613614495,0.004007920467108488
1715194786129112800,5.03511279296875,0.015806640940904615,-0.06674118428844958,0.01158127833083272
1715194786139187000,5.04518701171875,0.02269406236708164,-0.023811044882365965,0.01828136049136519
1715194786149260800,5.0552607421875,0.016867548170685767,-0.04657817476894706,0.0008496025666594505
1715194786159336000,5.0653359375,0.012386018842458725,-0.06316022052913904,0.004376315388083457
1715194786169409800,5.075409912109375,0.005793196448683738,-0.043104689972102636,0.011329933918267488
1715194786179484000,5.08548388671875,-0.003772504276037216,-0.03192351687476039,-0.008219254551827907
1715194786189557800,5.095557861328125,0.0020598551392555235,-0.05175886534247547,0.0024316110610961912
1715194786199633000,5.1056328125,0.021810265269875524,-0.04929528824053704,-0.0035398645639419554
1715194786209706800,5.115706787109375,0.007297755792737007,-0.0362706769503071,0.006167582719027996
1715194786219780900,5.12578076171875,0.010142623829841614,-0.04345485511664301,0.0037586218811571596
1715194786229854700,5.135854736328125,0.0213800571590662,-0.04509688670262694,0.023093583078682423
1715194786239929900,5.145929931640625,0.021990298011898994,-0.04019910472370684,0.013275222767144441
1715194786250003700,5.156003662109375,0.009452888000011444,-0.043291554313711816,0.00793181591257453
1715194786260077800,5.166077880859375,0.00767184980213642,-0.047303054977394635,0.007065408341586589
1715194786270152000,5.17615185546875,-0.0013034838140010834,-0.03363269312953343,0.013327245215326546
1715194786280226800,5.186226806640625,-0.007727379381656646,-0.04369425336308777,0.00006678162589669227
1715194786290301000,5.196301025390625,0.004079378268122673,-0.051116877644509076,-0.0002688800692558288
1715194786300374800,5.206374755859375,0.011701543709635734,-0.044049460008926684,0.01597118385285139
1715194786310449000,5.216448974609375,0.009008651363849639,-0.04055401910860091,0.006691022071242332
1715194786320523800,5.226523681640625,0.01799333733022213,-0.050984848762676116,0.0036433249384164807
1715194786330598000,5.236597900390625,0.02517243517935276,-0.0375986010858207,0.003521890515834093
1715194786340671700,5.246671630859375,0.016330372554063798,-0.05156082201972603,-0.0026648352950811383
1715194786350745900,5.256745849609375,0.010353051710128784,-0.04374773711599409,0.010896364806592463
1715194786360820700,5.26682080078125,0.006457213315367698,-0.049979105786234136,0.005243161350488662
1715194786370894800,5.276894775390625,0.0030301614761352536,-0.05796721846330911,0.00018719313517212867
1715194786380968700,5.28696875,0.0037982232391834255,-0.04387172882184386,-0.004167202682048082
1715194786391042800,5.297042724609375,0.012481880432367323,-0.047722887824662025,-0.0033053251557052135
1715194786401117700,5.30711767578125,0.017412322571873664,-0.04351630298029631,0.009773790517449378
1715194786411192000,5.317192138671875,0.014742811101675033,-0.04430559019446373,0.008688625629246235
1715194786421266000,5.327265869140625,0.014611878198385237,-0.04603190253041684,0.005693535466492176
1715194786431339800,5.33733984375,0.009819383224844932,-0.055467072210647166,0.013352087395638227
1715194786441415000,5.347414794921875,0.01833528263568878,-0.053552141967415805,0.012260054375231266
1715194786451488800,5.35748876953125,0.011008300748467445,-0.03268964240904897,0.009518792843073606
1715194786461563000,5.36756298828125,0.021054478466510772,-0.028867305358627342,0.02088131385669112
1715194786471636700,5.37763671875,0.007281973701715469,-0.05182652375120669,0.012392886974662542
1715194786481711900,5.3877119140625,0.007886953857541084,-0.04611161670312285,-0.011154431220889091
1715194786491785700,5.39778564453125,0.015804887375235558,-0.03727006553448736,-0.001632277376949787
1715194786501859800,5.40785986328125,0.009665069445967674,-0.028983408302254973,0.0021495792493224143
1715194786511933700,5.41793359375,0.002336333993077278,-0.0452836049137637,0.008253887473791837
1715194786522008800,5.4280087890625,0.0029348844081163407,-0.05340601149499416,0.00436053329706192
1715194786532082700,5.438082763671875,0.015215104788541793,-0.04773498012125492,0.024033202016353606
1715194786542157000,5.448156982421875,0.01550502764582634,-0.05257131423652172,-0.0062754270076751705
1715194786552231000,5.45823095703125,0.011603928554058075,-0.047670573115535075,0.00876709769293666
1715194786562306000,5.46830615234375,0.011602174988389015,-0.03452083989158273,-0.0014008067086338997
1715194786572380000,5.4783798828125,0.009364625194668769,-0.03696344498744002,-0.004444558318704366
1715194786582453800,5.488453857421875,0.027940730848908423,-0.040297121738083655,0.013636165034025908
1715194786592528000,5.49852783203125,0.0012976385951042175,-0.04454984727911651,0.015934943495690822
1715194786602602800,5.508602783203125,0.003382628175616264,-0.04842453328799456,0.01706029426380992
1715194786612676900,5.5186767578125,0.020741759255528448,-0.047871319852024315,-0.00015855156257748603
1715194786622750700,5.528750732421875,0.002651391291618347,-0.03401084454283118,0.004807400281727314
1715194786632825900,5.538825927734375,0.00023497779965400695,-0.03770173495002091,0.025633038428425788
1715194786642899700,5.548899658203125,0.017437457013130188,-0.04285973876770586,0.02373363454788923
1715194786652973800,5.558973876953125,0.013412439280748367,-0.04012552803084254,-0.00033390812948346134
1715194786663047700,5.569047607421875,0.023442250385880468,-0.041910877077654,0.01460048002153635
1715194786673122800,5.579122802734375,0.00893149447441101,-0.042557431352883576,-0.0018934125311672687
1715194786683196700,5.58919677734375,-0.0022831425011157988,-0.025671032351255417,0.0002836392469704151
1715194786693271000,5.59927099609375,-0.01470890883207321,-0.04151131983343512,0.014093407282233237
1715194786703345000,5.609344970703125,-0.004366963037848472,-0.03692863168567419,0.014106705155223607
1715194786713420000,5.619419921875,0.004013327294588089,-0.04663553097937256,0.007517536023259163
1715194786723494000,5.629493896484375,0.016579963400959966,-0.04893251934275031,0.0023006781578063964
1715194786733567700,5.639567626953125,0.0023760814815759657,-0.034755890756472944,0.008488573012501001
1715194786743641900,5.649641845703125,0.011211714366078375,-0.04148523554410785,0.0009539397239685058
1715194786753716700,5.659716796875,0.012108370944857597,-0.03793788179345429,0.00934065979719162
1715194786763790800,5.669790771484375,0.01615676955282688,-0.04070924620293081,0.003591302490234375
1715194786773864700,5.67986474609375,0.022000819405913353,-0.025908238640613854,-0.007844722151011228
1715194786783938800,5.689938720703125,0.0010492167919874192,-0.04537289063241332,0.012221037539094686
1715194786794013700,5.700013671875,0.0037426936596632,-0.04056899748202413,0.008777765217423439
1715194786804087800,5.710087890625,0.005837035590410232,-0.05198551370520144,0.01207139993533492
1715194786814161700,5.72016162109375,0.019904139387607572,-0.051304289975389834,0.023279461039602756
1715194786824236000,5.730236083984375,0.006903788039088248,-0.03259739754833281,0.006378741251677274
1715194786834310700,5.740310546875,0.0018307225584983824,-0.040452239234559234,-0.006905833865702152
1715194786844385000,5.750385009765625,0.0007920271605253219,-0.03336209831051528,0.006042495034635067
1715194786854459000,5.760458984375,0.016354922473430632,-0.03895842048022896,0.0018489888675510882
1715194786864532700,5.77053271484375,0.004085223487019538,-0.061256432734429836,0.011125643517822026
1715194786874607900,5.78060791015625,-0.0071294134885072705,-0.03869940421786159,0.02796791111677885
1715194786884682000,5.790681884765625,0.014726444488763809,-0.039028015117719764,-0.0011310498565435408
1715194786894755800,5.800755859375,0.007703998506069183,-0.04677661995049566,-0.02157294938266277
1715194786904829700,5.81082958984375,-0.009818798702955246,-0.04311879156269133,-0.00035042087286710737
1715194786914904800,5.82090478515625,0.009037877458333968,-0.04336323131043464,0.005314473021030426
1715194786924978700,5.830978759765625,0.018311901760101317,-0.0299928410731256,0.0017443594492971895
1715194786935052800,5.841052734375,0.0037953006297349926,-0.046822833712399,0.02374590950757265
1715194786945126700,5.851126708984375,0.005761047744750976,-0.04404701232351362,0.022084698297083375
1715194786955201800,5.861201904296875,0.011003040051460265,-0.04381451874189079,0.016511282078921795
1715194786965275600,5.871275634765625,0.025070728370547295,-0.04320109955128282,0.01679579810872674
1715194786975350000,5.88135009765625,0.011599836900830269,-0.04023487015683204,0.00933978301435709
1715194786985424000,5.891423828125,0.018344634985923765,-0.04791428221091628,0.009698679454624652
1715194786995499000,5.9014990234375,0.025407412979006765,-0.03923234205078333,-0.0011601298205554484
1715194787005572900,5.91157275390625,0.022875848674774168,-0.04010682333037257,0.002624649415165186
1715194787015647000,5.92164697265625,0.02110065569579601,-0.044131000812537964,0.007993921363353728
1715194787025720800,5.931720947265625,0.0043289691150188445,-0.04479918239768594,0.008089490692317486
1715194787035796000,5.9417958984375,0.007775310176610946,-0.04221983342897147,-0.010351882666349411
1715194787045870000,5.9518701171875,0.011508066964149475,-0.05202182712759822,0.002287964806705713
1715194787055944000,5.96194384765625,0.02004325559735298,-0.03866225054524839,0.007026537635922431
1715194787066018000,5.97201806640625,0.00791851803958416,-0.03911711817327886,-0.0037210663497447964
1715194787076093000,5.982093017578125,-0.0015156652599573135,-0.03489891595635563,0.008150719360262156
1715194787086167000,5.9921669921875,0.0059796589314937585,-0.047314526219479736,-0.0043752924747765065
1715194787096241000,6.002240966796875,-0.0038859015226364135,-0.03307265037726611,0.011991904958337544
1715194787106315000,6.01231494140625,-0.004650456154346466,-0.029172245405241846,0.024243629896640775
1715194787116390000,6.022389892578125,0.015699088913202285,-0.03604150783693185,-0.01001724388450384
1715194787126464000,6.032464111328125,0.019313187757134437,-0.052885750480554994,-0.0019714462034404277
1715194787136538000,6.0425380859375,0.0031511575073003765,-0.05335303919874131,0.016293839935958385
1715194787146612000,6.052612060546875,-0.018266309052705765,-0.021146647978702093,0.002983838116377592
1715194787156687000,6.06268701171875,0.016765256839990614,-0.035940899289958174,-0.023482290135324
1715194787166761000,6.072760986328125,0.02215337961912155,-0.04525609585233033,-0.006876900032162666
1715194787176835000,6.0828349609375,0.004059504523873329,-0.039834326531924306,0.024452011950314042
1715194787186909000,6.092908935546875,0.014826982253789901,-0.049582763412408526,0.02479951021373272
1715194787196984000,6.102984130859375,0.014807693031430244,-0.04984616358894854,0.01851370794251561
1715194787207058000,6.113057861328125,0.003584872749447822,-0.03593826894145459,0.004743687395751476
1715194787217132000,6.123132080078125,-0.009413140511512756,-0.028689135780127252,0.007724310641735792
1715194787227206000,6.133205810546875,0.004942717099189758,-0.042362602900527416,0.023204934498667715
1715194787237281000,6.143281005859375,0.012265607333183288,-0.03927775209508836,0.0018839140504598615
1715194787247355000,6.15335498046875,0.010166589227318763,-0.033819157895632085,0.0019134324058890343
1715194787257429000,6.163428955078125,0.0041822541207075115,-0.03756141088058939,0.012977408864349126
1715194787267503000,6.173503173828125,0.008677811974287032,-0.03408818409536034,0.009778174431622029
1715194787277578000,6.183577880859375,0.014525368958711623,-0.027939413391367997,-0.007369798115640878
1715194787287652000,6.193652099609375,0.011392916151881217,-0.03245813520811498,-0.0011693360403180122
1715194787297726000,6.203725830078125,0.02096563113927841,-0.04417622819375246,0.011277473078668117
1715194787307800000,6.213800048828125,0.003160509857535362,-0.031474713661335404,0.008115794177353381
1715194787317875000,6.223875,-0.002068038445711136,-0.03971230758745223,0.012082359720766543
1715194787327949000,6.233948974609375,-0.00027180267870426176,-0.04248418345358222,0.02509878542125225
1715194787338023000,6.24402294921875,0.015596213060617446,-0.035111022053787015,-0.008171469887346029
1715194787348097000,6.254096923828125,0.0022825579792261123,-0.03395177129935473,0.001218143618106842
1715194787358172000,6.264171875,0.009473346266150474,-0.03735745155699551,0.01266878130659461
1715194787368246000,6.27424609375,0.0045329672545194625,-0.045336358014307916,0.0038536066882312297
1715194787378320000,6.28431982421875,0.004219663521647453,-0.039465237491205334,0.008156126187741756
1715194787388394000,6.29439404296875,0.016795651978254316,-0.046832478323578834,0.013941577721387146
1715194787398468900,6.30446875,-0.002500584644079208,-0.032050027047970796,0.014029840526729821
1715194787408543200,6.314543212890625,-0.013254618370532989,-0.03622022540470352,0.016260960579663513
1715194787418617000,6.3246171875,-0.00007306523621082306,-0.032674116046354174,0.0040292555160820484
1715194787428692200,6.334692138671875,0.011884499061107634,-0.04572586878854781,0.003234744137525558
1715194787438766000,6.34476611328125,-0.003238251268863678,-0.026009726253710685,0.0004617722928524017
1715194787448840000,6.35483984375,0.006928922480344772,-0.04649239618163556,-0.006359305898845195
1715194787458914000,6.3649140625,0.019210896426439285,-0.03643273792751133,0.013146627951413392
1715194787468988000,6.37498779296875,0.02548573891222477,-0.028951807587593793,0.01516688173264265
1715194787479063000,6.38506298828125,0.006796236011385917,-0.029606179843097925,0.01773702448159456
1715194787489137000,6.395136962890625,0.02941664862036705,-0.04627290821205824,0.012443375052884221
1715194787499211000,6.4052109375,0.0198462717205286,-0.04806530805416405,0.030947949840873477
1715194787509286000,6.415285888671875,0.0013028992921113966,-0.034485732045583424,0.021431129759177565
1715194787519360000,6.425360107421875,0.0065437225550413125,-0.030901224622316658,0.016460867065936326
1715194787529433900,6.435433837890625,0.006987959191203117,-0.035312574791163204,-0.0014570669405162334
1715194787539508200,6.44550830078125,0.0011538462102413177,-0.04793561725988984,-0.00027706337571144104
1715194787549582800,6.455582763671875,0.01777063449025154,-0.044314869479462504,0.009689034843444824
1715194787559657200,6.4656572265625,0.015377601873874663,-0.041468467072397465,-0.017703414472937582
1715194787569731000,6.47573095703125,-0.0003372691303491592,-0.03469480365242343,-0.010647577677294611
1715194787579805000,6.485804931640625,0.006117606097459793,-0.03948295581098646,0.010282178431004286
1715194787589880000,6.495880126953125,0.008810498443245888,-0.031074425764754412,0.02255918394103646
1715194787599954000,6.505953857421875,0.011978607085347174,-0.029385376699268818,0.0114366822283715
1715194787610028000,6.516028076171875,0.010047931283712386,-0.03180467170148622,0.012520678072795272
1715194787620102000,6.526101806640625,0.0019891279906034467,-0.04294383685458451,0.019376900643110276
1715194787630177000,6.536177001953125,0.012618658554553986,-0.03885938055254519,0.006764087307453155
1715194787640251000,6.5462509765625,-0.007734978166222572,-0.03653813453074545,0.010526289385184646
1715194787650325000,6.556324951171875,-0.0030967969715595244,-0.042362602900527416,0.0008044482506811618
1715194787660398800,6.56639892578125,0.004524199426174163,-0.030128043726156465,0.025276699271425604
1715194787670474000,6.576473876953125,0.0027361469656229016,-0.05380267809580545,0.013245631346479058
1715194787680547800,6.5865478515625,0.010520809492468834,-0.035819172606430943,-0.00953165232464671
1715194787690622200,6.596622314453125,0.018330021938681603,-0.05510638110551517,0.005366641599684954
1715194787700696000,6.606696044921875,0.031046295648813244,-0.03394281624134164,0.00793276576064527
1715194787710771200,6.616771240234375,0.016837153032422066,-0.026400807930529117,0.016251169838011264
1715194787720845000,6.626844970703125,0.01341010119318962,-0.038911074207164345,0.005357070053741335
1715194787730919000,6.6369189453125,0.006371288597583771,-0.025073504849523306,0.016772563363611697
1715194787740993000,6.646992919921875,0.012218261060118675,-0.037495764049142594,0.015182298497483133
1715194787751068000,6.65706787109375,0.01745090101659298,-0.026940065906383096,0.005183540117740631
1715194787761142000,6.66714208984375,0.014001637345552443,-0.03168579912874848,0.002396978139132261
1715194787771216000,6.6772158203125,0.021181904238462446,-0.04176058188676834,0.01827310411967337
1715194787781290000,6.6872900390625,0.009803016611933708,-0.034358593967999326,0.012489260021224618
1715194787791364900,6.69736474609375,0.0035077158600091934,-0.03752334617581218,-0.0010438099645078182
1715194787801439000,6.70743896484375,0.01622398957014084,-0.030233883287385105,0.00660568187534809
1715194787811512800,6.717512939453125,0.017292495584487914,-0.023742580472747795,0.009132350808754562
1715194787821587200,6.727587158203125,0.01086860001683235,-0.028163835547678172,0.019069295998662708
1715194787831661800,6.737661865234375,0.009221417331695556,-0.037462409768812356,0.01174742867797613
1715194787841736200,6.747736083984375,0.012674772655963897,-0.02837356930822134,0.013004004610329866
1715194787851810000,6.75781005859375,0.009391513201594353,-0.020032953399047253,-0.004129062628746033
1715194787861884000,6.7678837890625,0.021807342660427092,-0.029702516357041894,0.012659355891123414
1715194787871959000,6.777958984375,0.009837503403425216,-0.03819390238113701,0.0068108490586280815
1715194787882033200,6.788033203125,0.004886602997779846,-0.03380399229254108,0.01693805612362921
1715194787892107000,6.79810693359375,0.015047347006201743,-0.03486139695756137,0.030969869411736725
1715194787902180900,6.808180908203125,0.025074820023775098,-0.037446006623283026,0.021522972761094567
1715194787912256000,6.818256103515625,0.001297054073214531,-0.03454696071352809,0.0056885670304298395
1715194787922329900,6.828329833984375,0.015840543210506437,-0.04545150882657617,-0.0000751110628247261
1715194787932404000,6.838404052734375,-0.0016734861701726913,-0.04881214436609298,0.008504647364467382
1715194787942477800,6.848477783203125,0.005973229190707206,-0.015685169985704125,0.010637933066114783
1715194787952553000,6.858552978515625,-0.0055383449047803875,-0.027687591771478764,0.012803440536931157
1715194787962626800,6.868626708984375,-0.0009042553633451461,-0.027415099539607763,0.013879910662025213
1715194787972701200,6.878701171875,0.013900515058636664,-0.032171203458937814,0.019339710437878965
1715194787982775000,6.888775146484375,0.0005669862329959869,-0.030817090002819895,0.008830664448440075
1715194787992850200,6.89885009765625,-0.0001765256106853485,-0.026193156529217956,0.017323548309877514
1715194788002924000,6.908924072265625,0.002514028647542,-0.05100088658202439,0.009414894077181815
1715194788012998100,6.918998046875,-0.01572539239823818,-0.03670428031131159,0.025003362222760915
1715194788023073000,6.929072998046875,0.006885667860507965,-0.0401643987365067,-0.0028019787434488534
1715194788033146600,6.939146728515625,0.011098901641368866,-0.03107084100160282,0.010178498860821127
1715194788043220500,6.949220458984375,0.006335048240423202,-0.03394738738518208,0.010273995124548673
1715194788053294600,6.959294677734375,-0.00966565396785736,-0.03025989451147616,0.012887392493337393
1715194788063368400,6.969368408203125,0.011123451560735702,-0.03891396028399467,-0.0028919951144605873
1715194788073443600,6.979443603515625,-0.001724339574575424,-0.039889344654791055,-0.003810498198866844
1715194788083517400,6.989517333984375,0.018607669836282727,-0.03531750669460743,0.008014087368547916
1715194788093591800,6.999591796875,-0.0021709142982959746,-0.02806980058867484,0.023258052925392982
1715194788103666400,7.00966650390625,0.02118015067279339,-0.028762568625807762,0.00673259619064629
1715194788113740800,7.01974072265625,0.0198462717205286,-0.03462652875576168,-0.005037117384374142
1715194788123814700,7.029814697265625,0.004580313527584075,-0.04694631396159529,0.00021883038245141504
1715194788133888800,7.039888671875,-0.0011117606341838836,-0.033182467427290974,0.0026573826409876343
1715194788143963600,7.049963623046875,-0.0017126491367816924,-0.017100955067761242,-0.001962166918441653
1715194788154037800,7.060037841796875,0.0077250412940979,-0.027310141327790916,0.008422595104202627
1715194788164111600,7.070111572265625,0.015216273832321166,-0.031270678989216684,-0.009314794703572988
1715194788174185500,7.080185546875,-0.010070143115520477,-0.029858834863337687,0.0012906243324279784
1715194788184260600,7.090260498046875,0.009553425765037536,-0.021016155750118195,0.00022007249146699904
1715194788194334500,7.10033447265625,0.015697919869422913,-0.03838164350558072,0.01076725853420794
1715194788204408600,7.11040869140625,-0.000019289222359657286,-0.037401034970395264,0.00406578813418746
1715194788214482400,7.120482421875,-0.006022329029440879,-0.030553214902244507,0.0031498423330485817
1715194788224557600,7.1305576171875,0.02122223624885082,-0.03491505880698096,0.005014978617802262
1715194788234631400,7.14063134765625,0.03143091105222702,-0.04884283176530152,0.005800502972304821
1715194788244705800,7.150705810546875,-0.0009176993668079376,-0.032167408633232114,0.019479118908569217
1715194788254779600,7.160779541015625,-0.0009153612792491912,-0.0371175007547019,-0.01614938996396959
1715194788264854800,7.170854736328125,0.028421207842230796,-0.026837952672201206,-0.024583748571202158
1715194788274928600,7.1809287109375,0.003429389926791191,-0.017941127652372234,0.014493366385251283
1715194788285002800,7.191002685546875,0.0010270049601793288,-0.03838781751804054,0.02323109185323119
1715194788295076600,7.20107666015625,-0.005121580797433853,-0.0277042917445302,0.00807487764507532
1715194788305151700,7.21115185546875,0.032744331738352776,-0.04555518839675933,0.009510536471381783
1715194788315225600,7.2212255859375,0.004306172761321067,-0.047233168078958984,0.002981426963582635
1715194788325299500,7.231299560546875,-0.005429623833298683,-0.039512108840234574,-0.004274535514041781
1715194788335373600,7.24137353515625,0.023901100069284437,-0.033441849015839395,0.004835018941015005
1715194788345448700,7.25144873046875,0.015971476113796235,-0.036209706293977795,-0.007140519404411316
1715194788355522600,7.2615224609375,-0.0030418519139289854,-0.04427965203560889,0.014030278918147086
1715194788365596400,7.271596435546875,0.017764789271354674,-0.03951181657928973,0.007092442478984594
1715194788375670800,7.2816708984375,0.015078326666355132,-0.02848612630460411,0.006582812456414103
1715194788385745400,7.291745361328125,0.01552022521495819,-0.03061144789550453,0.028334990863502024
1715194788395819800,7.30181982421875,0.0019137246668338775,-0.040061157557740805,0.031236922850087282
1715194788405893600,7.3118935546875,-0.006593406915664672,-0.02543861183486879,-0.002909896097332239
1715194788415967700,7.3219677734375,0.00015898995399475096,-0.024618746819347143,0.0011208207234740257
1715194788426042600,7.332042724609375,0.012725041538476943,-0.026176461122743785,0.005934431550279259
1715194788436116700,7.34211669921875,0.014062427622079848,-0.019577830042690036,-0.002668342426419258
1715194788446190600,7.352190673828125,-0.0016495207726955413,-0.04173826045710593,0.005107844533026218
1715194788456264700,7.3622646484375,-0.010057868155837058,-0.038487661163322626,0.004134907847642899
1715194788466339600,7.372339599609375,0.0041559506356716154,-0.03376943700239062,0.0026491993345320224
1715194788476413700,7.38241357421875,0.016896774265170098,-0.033119887052476406,-0.00201871941126883
1715194788486487600,7.392487548828125,0.02797346407473087,-0.027379699432663617,0.02009118639230728
1715194788496561400,7.4025615234375,0.007625088050961494,-0.03354498059675097,-0.002077098535001278
1715194788506636500,7.412636474609375,0.006280103182792663,-0.025371094990032723,-0.002086523950472474
1715194788516710400,7.42271044921875,0.002982230681180954,-0.024831951178610322,0.0036472704611718652
1715194788526784800,7.43278466796875,0.0037391865283250805,-0.035513316961075174,0.01300261637084186
1715194788536858600,7.442858642578125,0.017502923464775083,-0.036224173210747536,0.004493950418382883
1715194788546933800,7.452933837890625,0.002655482944846153,-0.03081745532900095,0.0005738543651998043
1715194788557007600,7.463007568359375,0.02092822173833847,-0.030254560749232766,-0.01257379649952054
1715194788567081700,7.473081787109375,-0.005261866050958633,-0.045415268469415605,0.0033159926801919937
1715194788577155600,7.483155517578125,0.010887889239192008,-0.05334072770643979,-0.004826251112669706
1715194788587230700,7.493230712890625,0.001474164205789566,-0.03485262912921607,0.005240457936748862
1715194788597304600,7.5033046875,0.00625146161019802,-0.028023586826771495,0.01968538207039237
1715194788607378700,7.513378662109375,0.016273673930764197,-0.018066439099051056,0.011775924120098352
1715194788617452500,7.52345263671875,-0.00005085340440273285,-0.024134214705415068,0.0003618921149522066
1715194788627527700,7.533527587890625,0.0017348609685897826,-0.023570297212339938,0.007324059277772903
1715194788637601500,7.5436015625,0.016710311782360075,-0.01489259483590722,-0.0023447364952415227
1715194788647675400,7.55367529296875,0.008922142124176025,-0.03173142836876213,-0.006631985360383987
1715194788657750500,7.56375048828125,-0.005156067588925361,-0.020667123116739093,0.016354264886304735
1715194788667824400,7.573824462890625,0.00022737901508808136,-0.02320745524931699,-0.0011292232256382704
1715194788677898800,7.583898681640625,0.00008767828345298767,-0.04748454902414232,0.007766250087320804
1715194788687972600,7.59397265625,-0.0008206687331199646,-0.03861333336960524,0.008594955996423959
1715194788698047700,7.6040478515625,0.011443185034394263,-0.030126477390155195,0.010593874728679656
1715194788708121600,7.61412158203125,0.003206687086820602,-0.013898798025585711,0.004951338797062635
1715194788718195700,7.62419580078125,0.013686580047011374,-0.015804412451200185,0.001908975426480174
1715194788728269600,7.63426953125,-0.003972995284199714,-0.01960179544016719,-0.004658785591274499
1715194788738344700,7.6443447265625,0.022065701335668562,-0.03166997593853157,0.004604790381714702
1715194788748418600,7.65441845703125,0.00651683454811573,-0.03279631765391677,0.016615180844813584
1715194788758492700,7.66449267578125,0.022255086427927017,-0.026884317131154238,0.011758242332935332
1715194788768566500,7.67456640625,0.0035468788266181943,-0.02050371271595359,0.013128800033777952
1715194788778641700,7.6846416015625,0.006382979035377502,-0.024481196945603006,0.01078581710420549
1715194788788715500,7.694715576171875,0.011611527338624,-0.023034363704733548,0.019076018000394105
1715194788798789400,7.704789306640625,0.0003968903630971908,-0.030228727621654978,0.003753872640803456
1715194788808863700,7.71486376953125,-0.0028518822997808456,-0.018690525814145802,-0.005128960386291146
1715194788818938600,7.724938720703125,0.00851063871383667,-0.014315160274133085,0.004820332828536629
1715194788829012700,7.7350126953125,0.005066635739803314,-0.024981406119279563,0.008871288719773293
1715194788839086600,7.745086669921875,0.023169278663396835,-0.02617408650256693,0.018178557704016565
1715194788849160700,7.75516064453125,0.021083120039105414,-0.02254825612164568,-0.004627367539703846
1715194788859235600,7.765235595703125,0.033065818777680396,-0.0373592005560873,0.0026102555636316536
1715194788869309700,7.775309814453125,0.004027940341830253,-0.015662300566770135,0.008059168619289995
1715194788879383600,7.785383544921875,-0.002869417956471443,-0.010861987612955272,0.005321852609887719
1715194788889457700,7.795457763671875,0.020613748961687085,-0.030716296509467063,0.0009103928431868553
1715194788899532500,7.805532470703125,0.011499883657693862,-0.026048925752937793,0.0003422375664114952
1715194788909606700,7.815606689453125,-0.00870060832798481,-0.03858396114464849,-0.004154197070002556
1715194788919680500,7.825680419921875,0.01375730719566345,-0.02870269166473299,0.018943696857616304
1715194788929754600,7.835754638671875,0.012865326792001723,-0.027302177217043935,0.013357348092645407
1715194788939829500,7.84582958984375,0.011798574343323707,-0.02011285023484379,0.0187505854383111
1715194788949903600,7.855903564453125,0.017797522497177122,-0.02951386191714555,0.009968728567659855
1715194788959977700,7.865977783203125,0.017795184409618376,-0.01413041482437402,0.004595511096715927
1715194788970051600,7.876051513671875,0.013756722673773765,-0.02619560421463102,0.013863105657696722
1715194788980126700,7.886126708984375,0.015712532916665075,-0.02938365966621786,0.012433218985050915
1715194788990200600,7.89620068359375,0.004046645042300224,-0.024709781537088565,0.008796835244074463
1715194789000274700,7.906274658203125,0.0018166940331459044,-0.035165051512676286,0.022441329715028404
1715194789010348500,7.9163486328125,0.013936755415797232,-0.028957762404344976,0.02707929171398282
1715194789020423700,7.926423583984375,0.00467383702993393,-0.027524405132979154,0.01020092988833785
1715194789030497500,7.93649755859375,-0.0005558803170919418,-0.034060492370836436,-0.004678001748397946
1715194789040572700,7.94657275390625,0.015154899033904075,-0.02379924713000655,-0.008260609475523232
1715194789050646500,7.956646484375,0.006921323695778846,-0.02430193595513701,0.03111760731935501
1715194789060721700,7.9667216796875,0.004990647894144058,-0.019396810919977723,-0.004311287327855825
1715194789070795500,7.97679541015625,0.018470891714096067,-0.027907554665091445,0.005015124748274684
1715194789080869600,7.98686962890625,0.0038128362864255903,-0.018934011147241105,-0.0046192572984844445
1715194789090943500,7.996943603515625,0.017429273706674575,-0.027077793876640496,0.009594926819205284
1715194789101018600,8.0070185546875,-0.006217559340596199,-0.015862640877882948,0.00588920416906476
1715194789111092500,8.017092529296875,0.0064876084536314,-0.031432591552659865,0.007052841120958328
1715194789121166600,8.02716650390625,0.005283493360877037,-0.02456979311108589,0.0014223609533160924
1715194789131240700,8.03724072265625,0.00901858823597431,-0.03150470694079995,-0.0006364712726324796
1715194789141315600,8.047315673828125,0.015149638336896896,-0.018019860010966657,-0.0031457506798207757
1715194789151389700,8.0573896484375,0.004830488896369934,-0.02359287437032908,0.008181552889943123
1715194789161463600,8.067463623046875,0.0005097030878067016,-0.02298763848617673,0.015065028793364762
1715194789171537700,8.07753759765625,0.006788637226819992,-0.019885873078554866,-0.0018025193773210048
1715194789181612500,8.087612548828124,0.009618307694792747,-0.024622212851489893,0.015057868400216102
1715194789191686700,8.097686767578125,0.002881692916154861,-0.029975739241275005,0.0072930065523833035
1715194789201760500,8.107760498046876,0.006188917768001556,-0.021447204111143946,0.008813128791749477
1715194789211835600,8.117835693359375,-0.0011263736814260481,-0.02002981159389019,0.02095496361479163
1715194789221909500,8.127909423828125,0.018446341794729232,-0.02865245931483805,0.01714826480820775
1715194789231983600,8.137983642578124,0.013056465449929236,-0.02581555082190316,-0.005127060690149665
1715194789242057500,8.148057373046875,0.012909165933728216,-0.012548803622159176,0.003535115323588252
1715194789252132600,8.158132568359376,0.008426467561721801,-0.021680574475601313,0.008562076640129089
1715194789262206500,8.16820654296875,0.011121697995066642,-0.026670637847855685,0.013335574652254581
1715194789272280600,8.178280517578125,0.021585808864235875,-0.024433741074684073,0.01117656998746097
1715194789282354700,8.188354736328124,0.015603811845183372,-0.029641543417423963,-0.013544687358289956
1715194789292429600,8.1984296875,0.011128712257742882,-0.02637768278326839,0.012977408864349126
1715194789302503700,8.208503662109376,-0.016718495088815687,-0.022832959381118414,0.006507189936935901
1715194789312577500,8.21857763671875,-0.014038462224602699,-0.04525039676390588,-0.0025078911677002907
1715194789322651600,8.228651611328125,0.02848901238143444,-0.031945107652060684,0.012215411515906452
1715194789332726500,8.2387265625,0.001239186406135559,-0.026495130583900024,0.02041961462907493
1715194789342800600,8.248800537109375,0.000032733225822448726,-0.01759768907614052,0.001042275594547391
1715194789352874500,8.25887451171875,0.03131634476184845,-0.01861468409895897,-0.006065729779750108
1715194789362948600,8.268948486328124,0.045395723518729204,-0.025516718572378156,-0.022634806460514665
1715194789373023500,8.2790234375,0.003350479471683502,-0.02045000520076137,0.003379047979041934
1715194789383097600,8.28909765625,0.004557517173886299,-0.03517850008271634,0.01287109894566238
1715194789393171500,8.29917138671875,0.00963993500471115,-0.031100505487504412,0.001990808491036296
1715194789403245600,8.30924560546875,0.011278349861502647,-0.02465283175203949,0.009678367318958044
1715194789413320400,8.319320556640625,0.004532382732629776,-0.03165942257847637,0.02877951976060867
1715194789423394600,8.32939453125,-0.009413140511512756,-0.02800046167951077,0.008214578376710415
1715194789433468700,8.33946875,0.00914718305170536,-0.01581752766110003,-0.0019964345142245293
1715194789443542500,8.34954248046875,0.012879939839243888,-0.01704874995648861,0.0056925125531852245
1715194789453617700,8.35961767578125,0.012431027027964591,-0.014840864648669957,0.02185688089057803
1715194789463691500,8.36969140625,0.010634791260957717,-0.02934928247258067,0.011381006518378853
1715194789473765600,8.379765625,0.011676993790268897,-0.02626041307915002,0.002285845914855599
1715194789483839500,8.389839599609376,0.01823591391444206,-0.024421726409904657,0.016097659776732325
1715194789493914600,8.39991455078125,0.0014870236873626708,-0.02294850748560857,0.01795892360396683
1715194789503988500,8.409988525390625,0.009567454290390014,-0.01076276045560371,0.011223039477691054
1715194789514062600,8.4200625,0.0034036709636449812,-0.03303023600764572,-0.003665975161641836
1715194789524136400,8.430136474609375,-0.003919803792238235,-0.018692790836468336,0.0013504647608846426
1715194789534211600,8.440211669921876,0.010431377643346786,-0.016719518002122638,0.011633593039959669
1715194789544285400,8.450285400390625,0.012080313894152641,-0.025772227703407407,0.008158318144828081
1715194789554359600,8.460359619140625,0.0050683893054723735,-0.02022383632864803,-0.011025105752795934
1715194789564433700,8.47043359375,0.01912964788377285,-0.024126250594668087,0.0077084554854780435
1715194789574508500,8.480508544921875,0.004295066845417022,-0.01759476646669209,0.014602818109095096
1715194789584582700,8.490582763671876,0.007595861956477165,-0.0399305488814367,0.000016731939092278478
1715194789594656500,8.500656494140625,0.007304185533523559,-0.025779022770375012,0.01072290793582797
1715194789604730600,8.510730712890625,0.004158873245120048,-0.017789375723339617,0.002515636082738638
1715194789614805500,8.520805419921874,0.014504326170682907,-0.016950221485458314,0.0050488078221678735
1715194789624879600,8.530879638671875,0.024386253237724302,-0.02381415243819356,0.004248012833297252
1715194789634953500,8.540953369140626,0.016432663884758947,-0.03200315798223018,0.030311990024894476
1715194789645027600,8.551027587890625,0.011776947033405304,-0.028907201260887083,0.0082968498326838
1715194789655102500,8.5611025390625,0.01792845540046692,-0.021607436174154282,-0.0027599662326276302
1715194789665176600,8.571176513671874,0.026608605462312696,-0.008027933230809867,0.008153495839238167
1715194789675250400,8.58125048828125,0.012854220876097678,-0.014048362564109265,0.011799304995685815
1715194789685324500,8.591324462890626,-0.002241056925058365,-0.024963139810226857,0.0010308774176985024
1715194789695399400,8.6013994140625,0.008998714491724968,-0.026892390839755535,0.019449746683612466
1715194789705473500,8.6114736328125,-0.0008896423161029815,-0.02618785929959267,0.02223594333603978
1715194789715547600,8.621547607421874,0.007927870389819144,-0.024301639127614908,0.010346110512688755
1715194789725622500,8.63162255859375,0.014651625686883926,-0.018066548696905372,0.020744097343087194
1715194789735696600,8.641696533203126,0.0311222834944725,-0.016352182527072726,0.005545213036984205
1715194789745770800,8.651770751953125,0.02363748069703579,-0.018994002272747456,0.01499298647046089
1715194789755844600,8.6618447265625,0.02153027928471565,-0.019024210181343367,0.018385478452965617
1715194789765919700,8.671919677734374,0.005816577324271202,-0.00499167080745101,-0.006440042984858155
1715194789775993600,8.68199365234375,-0.00032207156121730803,-0.020464074825309216,-0.01659194609969854
1715194789786067500,8.6920673828125,0.00936287162899971,-0.018750836600060574,0.016215148676559328
1715194789796141600,8.7021416015625,-0.0005102876096963882,-0.02409399229288101,-0.002973316722363233
1715194789806216400,8.712216552734375,-0.0004997662156820296,-0.01979326289165765,-0.0038071371980011462
1715194789816290600,8.72229052734375,0.02223579720556736,-0.014751104005984962,0.0023955898996442554
1715194789826364400,8.732364501953125,0.012354454660415648,-0.022100736116431652,0.015308336029946802
1715194789836438500,8.7424384765625,0.024630583387613297,-0.02056450299248099,0.023638795871287584
1715194789846513400,8.752513427734375,0.012811550778150558,-0.026626908303983506,0.01867357467934489
1715194789856587800,8.762587890625,0.004569207611680031,-0.021271263022348285,0.009338175579160451
1715194789866661600,8.77266162109375,0.010853986969590187,-0.021637575584091243,0.009483867660164833
1715194789876735700,8.78273583984375,0.005905424651503562,-0.02559862470217049,0.0016292086370289325
1715194789886810600,8.792810546875,0.0011158522874116898,-0.022243870914168653,0.0038812253475189206
1715194789896884700,8.802884765625,0.009781389302015305,-0.012617489510774611,0.004589227486401796
1715194789906958600,8.81295849609375,0.005437222617864609,-0.028042839516513048,0.005225041171908378
1715194789917032400,8.823032470703126,0.002006079125404358,-0.025238335455837656,0.01846395051665604
1715194789927107600,8.833107666015625,0.021937106519937515,-0.013065854332782328,0.014186638523638247
1715194789937181400,8.843181396484376,0.01444704302549362,-0.028018033868819472,0.010659633441269398
1715194789947255600,8.853255615234374,0.012355039182305336,-0.021566519641876218,-0.002975143353268504
1715194789957329400,8.863329345703125,0.018937340182065963,-0.02967698005698621,0.012448270423710345
1715194789967404500,8.873404541015624,0.02089548851251602,-0.023552574325981547,0.01504091726541519
1715194789977478400,8.883478515625,0.009513678276538848,-0.02969689033385366,-0.0008998714491724967
1715194789987552800,8.893552734375,0.014306173250079154,-0.024666166157647967,0.009397212290018796
1715194789997626600,8.903626708984374,0.011894435933232307,-0.02338244649004191,0.021054916857928038
1715194790007701800,8.91370166015625,0.001558335357904434,-0.01578884955588728,0.0030447745233774183
1715194790017775600,8.923775634765626,-0.005932897180318832,-0.016811105275712907,-0.011254238333553076
1715194790027849700,8.933849609375,0.006046294426918029,-0.024769731563399545,0.0070906158480793235
1715194790037923300,8.94392333984375,0.012643792995810508,-0.04037950279191136,0.010730652850866317
1715194790047998500,8.95399853515625,0.014886018964648246,-0.03537756175219547,0.007761793107911944
1715194790058072300,8.964072265625,0.006063830083608627,-0.026971191697008907,0.028363267109915612
1715194790068146400,8.974146484375,0.012370821273326874,-0.02072334224942606,0.007547711965814233
1715194790078220300,8.98422021484375,-0.0018733926564455032,-0.013987640786240808,0.004633285823836922
1715194790088295400,8.99429541015625,-0.002791676545143127,-0.013064575691148638,0.016763211013376713
1715194790098369300,9.004369384765624,-0.0034112697482109066,-0.027845490313507616,0.013638283925876021
1715194790108443100,9.014443115234375,0.010054361024498939,-0.02802373295724392,0.007362637722492218
1715194790118517500,9.024517578125,0.005551204386353492,-0.02361230972316116,0.011821370697021483
1715194790128592100,9.034592041015625,0.007807458880543708,-0.022001367395184934,0.010988500069454312
1715194790138666500,9.04466650390625,0.004662731114029884,-0.019412556478381155,0.018342881420254708
1715194790148740400,9.054740234375,0.005711947906017303,-0.03200067376419902,0.013093290328979492
1715194790158814500,9.064814453125,0.0024181670576334,-0.03210157685540616,0.01385309572033584
1715194790168889300,9.074889404296876,0.016940028885006904,-0.024404994470812378,0.006169628545641899
1715194790178963500,9.08496337890625,0.018128946408629415,-0.024412264461815356,0.01611227282397449
1715194790189037300,9.095037353515625,0.017058102306723593,-0.02258124964237213,0.012255232069641351
1715194790199112400,9.105112548828124,0.009129647395014762,-0.024699410840123892,-0.0009293167393654584
1715194790209186300,9.115186279296875,0.016017068821191787,-0.03131506612021476,0.03076265640184283
1715194790219260400,9.125260498046876,0.01632277376949787,-0.022033260370790956,0.013051570079103111
1715194790229334300,9.135334228515624,0.0049503158837556835,-0.020094693523645398,0.006765987003594636
1715194790239409400,9.145409423828125,0.020807810229063032,-0.027602183076925572,0.011284341210871934
1715194790249483300,9.155483154296874,0.005408581045269966,-0.022800408818386495,0.000552884642407298
1715194790259557400,9.165557373046875,0.010794365736842155,-0.01712235861539375,0.0017575111918151378
1715194790269631500,9.175631591796876,0.00419452908039093,-0.02440802667811513,0.009510390340909362
1715194790279706400,9.185706298828125,0.008977087181806565,-0.02300426082741469,0.015097031366825104
1715194790289780500,9.195780517578125,0.012891045755147934,-0.022121482076938263,0.002643281050398946
1715194790299854300,9.205854248046874,0.006460135924816131,-0.033953707528114316,0.010687544361501931
1715194790309928400,9.215928466796875,0.0033329438149929044,-0.0257613775158301,0.008617606219649314
1715194790320003300,9.22600341796875,-0.010420856249332427,-0.024026187753677368,0.00043079263269901275
1715194790330077400,9.236077392578125,-0.0005494505763053894,-0.02185377561803907,0.01123787172064185
1715194790340151300,9.2461513671875,0.01679857458770275,-0.022107092791981992,0.013559446536004542
1715194790350225400,9.256225341796876,-0.005042085820436477,-0.017058029241487385,0.016644480004534123
1715194790360300300,9.26630029296875,0.019192776247859,-0.01777746608983725,0.009361848715692758
1715194790370374400,9.27637451171875,0.019648118799924848,-0.018808087779209018,-0.0049115182433277366
1715194790380448300,9.2864482421875,0.010806640696525573,-0.013290639531984925,0.020779607047885656
1715194790390522400,9.2965224609375,0.0042453824847936625,-0.025509412048757073,0.03526581303998828
1715194790400597200,9.30659716796875,-0.0005482815325260162,-0.015741941674239934,0.02498458445705473
1715194790410671400,9.31667138671875,-0.005956862577795982,-0.015773469323664902,0.017974778760224578
1715194790420745500,9.326745361328125,0.017689385947585106,-0.04218676684300881,-0.008234963577613235
1715194790430819300,9.3368193359375,0.030423779836297033,-0.02272646679934114,0.007054010164737701
1715194790440894500,9.34689453125,0.011118775385618208,-0.005839921667240559,0.027120792768150565
1715194790450968300,9.35696826171875,-0.009541735327243804,-0.01472348534669727,0.013740502191334962
1715194790461042400,9.36704248046875,0.025776830813288687,-0.029638036286085842,0.002781009020656347
1715194790471116300,9.3771162109375,0.02428220834136009,-0.027062852035835385,-0.0027706337571144104
1715194790481191400,9.38719140625,-0.021969839745759962,-0.03811320182774216,0.018732465259730813
1715194790491265300,9.397265380859375,-0.0013245266020298003,-0.03594853004056495,0.004097425381466746
1715194790501339400,9.40733935546875,0.0018009119421243667,-0.027709365211869588,0.02787402228824794
1715194790511413200,9.417413330078125,0.01870879212319851,-0.015778579323622397,0.036414910009875893
1715194790521488400,9.42748828125,0.001793313157558441,-0.024015849022753534,0.006085749654471874
1715194790531562200,9.437562255859374,0.005833528459072113,-0.009458440957963466,0.014021657220274208
1715194790541636400,9.44763623046875,0.005983750584721565,-0.012212415841221808,-0.0012410861022770403
1715194790551710500,9.45771044921875,0.011381810235977173,-0.014347491641156375,0.008839505342021584
1715194790561785300,9.467785400390625,0.0064507835745811455,-0.013383286251500249,0.005480331107228994
1715194790571859500,9.477859375,0.009001637101173401,0.001992781252413988,0.012610767509043216
1715194790581933300,9.487933349609374,-0.00011398176848888397,-0.021258586203865705,0.006532032117247581
1715194790592007400,9.49800732421875,0.00019523031115531922,-0.021243717428296803,0.016476064635068177
1715194790602082300,9.508082275390626,0.010689736318588257,-0.014330613571591674,0.004495119462162256
1715194790612156400,9.518156494140625,0.008750292688608169,-0.012815021376870572,0.015965484764426947
1715194790622230300,9.528230224609375,0.018292028015851974,-0.007304696990177035,0.03404511213861405
1715194790632304400,9.538304443359374,0.0024169980138540265,-0.025925294806691816,0.002129340178892016
1715194790642379300,9.548379150390625,0.0039151276171207425,-0.009384133612737058,0.02035743611305952
1715194790652453400,9.558453369140626,0.003178630036115646,-0.012246427708677947,0.011734715326875448
1715194790662527200,9.56852734375,0.0030582185268402096,-0.017928925757925027,0.009711173610016704
1715194790672601300,9.578601318359375,0.00036941783428192136,-0.03185753896646201,-0.008292612048983574
1715194790682676200,9.58867626953125,0.0015676877081394194,-0.022307181941345334,0.017280366755276916
1715194790692750300,9.598750244140625,0.009351765713095664,-0.019243807748774995,0.008578662448748945
1715194790702824400,9.608824462890626,0.02433539983332157,-0.011505217419937252,0.015460823177918791
1715194790712899300,9.6188994140625,0.005633037450909614,-0.02265931528068613,0.0034696488719433544
1715194790722973400,9.628973388671875,-0.0015513210952281952,-0.016670851988228968,0.009619330608099698
1715194790733047600,9.639047607421874,0.0008493103057146072,-0.0028114041589200494,0.01958783998005092
1715194790743121400,9.649121337890625,0.0058019642770290375,-0.01913263899188023,0.030090675424411892
1715194790753196500,9.659196533203126,-0.00258241770863533,-0.02011533445287496,0.011723024889081717
1715194790763270400,9.6692705078125,0.02498947982788086,-0.029246918076649305,-0.0033984833318740125
1715194790773344300,9.67934423828125,0.022917934250831603,-0.021757507602754047,-0.01644866517148912
1715194790783418400,9.68941845703125,0.017545009040832518,-0.022560681778378784,0.013965543118864297
1715194790793493200,9.6994931640625,0.0039449382334947585,-0.01541943172160536,0.020868308244645594
1715194790803567400,9.7095673828125,0.0009656301617622375,-0.01620119321644306,0.005801745081320405
1715194790813641200,9.71964111328125,0.015611995151638984,-0.023693850526772437,0.0259990221966058
1715194790823715300,9.72971533203125,-0.001602174499630928,-0.002412358371354639,0.008686141411215067
1715194790833790200,9.739790283203124,0.0135112234801054,-0.030453846180997786,0.02380012391284108
1715194790843864300,9.7498642578125,0.03026362083852291,-0.024401670002564785,0.006496522412449121
1715194790853938400,9.7599384765625,0.006006546938419342,-0.006997635768423788,-0.010735986613109707
1715194790864012500,9.770012451171874,0.006897358298301696,-0.023679127881675956,0.0014389467619359492
1715194790874087400,9.78008740234375,0.023937340426445006,-0.024136625858210026,0.015655249771475793
1715194790884161500,9.79016162109375,0.007929039433598517,-0.013735716418363153,0.0195195239841938
1715194790894235400,9.8002353515625,0.0022317045748233796,-0.017347947532194666,0.0029962592065334317
1715194790904309200,9.810309326171875,0.01061900916993618,-0.013360672560893,0.005629530319571495
1715194790914384400,9.82038427734375,0.003457446977496147,-0.002383753331378102,0.01788520078063011
1715194790924458200,9.830458251953125,0.011544891843199729,-0.013211181087605654,-0.0025136633213609454
1715194790934532400,9.840532470703126,0.01423661514520645,-0.01726421477149706,0.015310454921796918
1715194790944606200,9.850606201171875,0.010343699359893798,-0.016391455091536045,0.017722849825769663
1715194790954681300,9.860681396484376,0.010946925950050354,-0.029482334267720577,-0.001320581079274416
1715194790964755200,9.870755126953124,-0.01106558389365673,-0.029828846150450408,0.016456190890818834
1715194790974829300,9.880829345703125,0.01856266165077686,-0.02048672504853457,0.008823577120527625
1715194790984903400,9.8909033203125,0.02618015091717243,-0.011802697962592356,0.016418050837516785
1715194790994978300,9.900978271484375,0.018392565780878067,-0.01386620636365842,0.008394976444914937
1715194791005052400,9.911052490234376,0.0005827683240175247,-0.008775098336301744,0.024574907677620647
1715194791015126500,9.92112646484375,0.02420505145192146,-0.03778908443991095,0.016808365329355
1715194791025200400,9.931200439453125,0.00804652833342552,-0.013635685543413273,0.009904211964085698
1715194791035275500,9.941275634765624,-0.005272971966862678,-0.013722893469408153,0.0064719724930822845
1715194791045348900,9.951348876953125,-0.0009451718956232071,-0.014684687706269323,0.012402750781551003
1715194791055422700,9.961422607421875,0.004293897801637649,-0.02863743984221946,-0.0045160891849547625
1715194791065496800,9.971496826171874,0.01836100159883499,-0.01892049864511937,0.00294818228110671
1715194791075571700,9.98157177734375,0.01687690052092075,-0.02012965523917228,0.027392522381618618
1715194791085645800,9.991645751953126,-0.005253682744503021,-0.01376994291495066,0.006622779140621423
1715194791095720000,10.001719970703125,0.00984860931932926,-0.032170440840534865,0.014481968208402394
1715194791105794000,10.0117939453125,0.022103110736608506,-0.02242686279825866,0.015199176567047834
1715194791115869000,10.021868896484374,0.012969956210255621,-0.018955241164937613,-0.0009197451934218406
1715194791125943000,10.031943115234375,0.009220248287916183,-0.013227109309099613,0.015158990687131882
1715194791136017000,10.042016845703126,0.02178571535050869,-0.024652977882511914,0.004710004321858287
1715194791146091000,10.052091064453125,0.03014379385113716,-0.02627790763664525,0.004586524072661996
1715194791156166000,10.062165771484375,0.008736848685145378,-0.014872935720789245,0.008695712957158683
1715194791166240000,10.072239990234374,0.006024082595109939,-0.012601963148079811,0.02665171395167708
1715194791176313900,10.08231396484375,0.002864157259464264,-0.021106898206914772,0.01391783151961863
1715194791186387700,10.0923876953125,0.010334347009658813,-0.030053558284416793,0.008164236428961157
1715194791196462800,10.102462890625,-0.0005979658931493759,-0.02075377848688513,0.010484934461489319
1715194791206536700,10.11253662109375,0.013168109130859374,-0.017795878529362378,0.01212904840670526
1715194791216610800,10.12261083984375,0.00672901599407196,-0.008717993287625722,0.017851152380555867
1715194791226685000,10.132684814453125,0.0026928923457860943,-0.00847648071590811,0.019016835159063338
1715194791236759800,10.142759765625,0.0064484454870223995,-0.022023652292229235,0.0018431436486542223
1715194791246834000,10.152833984375,0.016924831315875053,-0.02992953004594892,0.012454480968788265
1715194791256908000,10.162907958984375,0.012878186273574828,-0.020304349652375094,0.008770093367621303
1715194791266983000,10.17298291015625,-0.001188333001732826,-0.02092391088940203,0.009821136790513992
1715194791277057000,10.18305712890625,0.010022212320566177,-0.02237410969771445,0.014696633872389793
1715194791287131000,10.193130859375,0.007007832935452461,-0.012048457451164722,0.01874810122027993
1715194791297205000,10.203205078125,0.001174304476380348,-0.017492292472906408,0.022467121743410826
1715194791307280000,10.21327978515625,0.0050672202616930005,-0.018696914455736985,-0.002546981069073081
1715194791317354000,10.22335400390625,0.0014899462968111037,-0.022472857364453373,0.0015244330883026121
1715194791327427800,10.233427734375,0.007501753932237625,-0.013809329643845557,0.004458586844056845
1715194791337501700,10.243501708984375,0.020210428857803345,-0.020223178741522133,0.010810293958336114
1715194791347576800,10.253576904296875,0.012430442506074904,-0.023716500749997795,0.013490619083493947
1715194791357650700,10.263650634765625,-0.0026876316487789154,-0.030035803432017564,-0.003379047979041934
1715194791367724800,10.273724853515626,0.01031447326540947,-0.008422923897765576,0.010966653563827276
1715194791377799000,10.283798828125,0.007897475251555442,-0.011129694071854464,0.0012728694800287483
1715194791387873800,10.293873779296876,0.0230009363591671,-0.022489077846892178,-0.001641775857657194
1715194791397948000,10.303947998046874,0.005790273839235306,-0.015498597905039786,0.011395984891802071
1715194791408022000,10.31402197265625,0.005489829587936401,-0.019270115800388156,0.014704232656955718
1715194791418095900,10.324095947265626,0.019715338817238807,-0.02373557077664882,0.009545242458581923
1715194791428171000,10.3341708984375,0.008653262054920195,-0.012764021841995416,0.003317892376333475
1715194791438244900,10.344244873046875,-0.011859364619851112,0.0016925607634009792,0.028253669255599377
1715194791448319000,10.354319091796874,-0.013071078497171401,-0.01293956107199192,0.013852803459390998
1715194791458392800,10.364392822265625,0.01836976942718029,-0.025673918428085744,0.0015912147141993044
1715194791468468000,10.374468017578126,0.025553543451428413,-0.01736990820225328,0.02896145219877362
1715194791478541800,10.384541748046875,-0.003474398112297058,-0.004700323178060352,0.02086786985322833
1715194791488615700,10.39461572265625,0.006536123770475387,-0.031534257262269966,0.006629720338061452
1715194791498689800,10.404689697265624,0.041103579282760615,-0.021162943809665737,0.000030322073027491567
1715194791508765000,10.414764892578125,0.01612929702401161,-0.011495572808757423,0.023106588690727948
1715194791518838800,10.4248388671875,0.007765373304486275,-0.013127809086511842,0.02073817905895412
1715194791528913000,10.434912841796875,0.012989245432615279,-0.021857319281995295,-0.002647007377445698
1715194791538987000,10.444987060546875,0.0207657246530056,0.0002199994262307882,0.013996230518072843
1715194791549062000,10.455061767578124,-0.0055693245649337765,-0.01707468354876619,0.024909035002812743
1715194791559136000,10.465135986328125,0.00758650960624218,-0.012222060452401637,0.007949205438792704
1715194791569209900,10.4752099609375,0.014155951124429703,-0.013302074241451918,0.0010251052640378475
1715194791579284000,10.485283935546875,0.018489011892676353,-0.017140702556259928,-0.00042180560864508147
1715194791589358800,10.49535888671875,0.02447568508684635,-0.023299553979560732,-0.0007331365801393986
1715194791599433000,10.505432861328124,0.019393267256021498,-0.017540953920222816,0.020018851808458565
1715194791609506800,10.5155068359375,0.0011287117689847946,-0.018959588546492157,0.02906608161702752
1715194791619581000,10.525580810546876,-0.009064765465259552,-0.00998651995267719,0.028460224678367375
1715194791629655800,10.53565576171875,0.012034721186757087,-0.01879387659076601,0.014987433512508868
1715194791639730000,10.54572998046875,0.018918635481595992,-0.02229121718723327,0.024114158298075197
1715194791649803800,10.5558037109375,0.010229717591404914,-0.02339863043986261,0.01715542520135641
1715194791659878000,10.5658779296875,0.01067863040268421,-0.014538557233847676,0.012815642431378364
1715194791669952800,10.575952880859376,-0.0009866729497909545,-0.003853638654272072,0.006921396761015057
1715194791680027000,10.58602685546875,0.011283610558509826,-0.029001528480835256,0.011849427747726439
1715194791690101000,10.59610107421875,0.02893207997381687,-0.013470526143535971,0.009827420400828122
1715194791700174800,10.6061748046875,0.003062310180068016,-0.02124276758022606,0.010134586653858423
1715194791710250000,10.61625,0.010096446600556372,-0.018900844096578658,0.026437925070524212
1715194791720323800,10.62632373046875,-0.00454699577987194,-0.019586305610090494,0.017296294976770876
1715194791730398000,10.63639794921875,-0.0010877952367067335,-0.02092486073747277,0.011021014099568127
1715194791740471800,10.646471923828125,0.01688917548060417,-0.035763862222619354,0.009065276921913027
1715194791750547000,10.656546875,0.02137479646205902,-0.03123385411016643,0.0029508856948465105
1715194791760620800,10.666620849609375,-0.0010673369705677031,-0.013373203248903155,0.014292729246616363
1715194791770695000,10.67669482421875,0.0070125091105699535,0.002216762734018266,0.022223083854466676
1715194791780769800,10.686769775390625,0.009852116450667381,-0.005836341470666229,0.004295943628251552
1715194791790844000,10.696843994140625,-0.003466799327731132,-0.02377670193805825,0.007298851771280169
1715194791800917800,10.706917724609376,0.0034101007044315336,-0.030241920463368294,0.016626871282607317
1715194791810991900,10.716991943359375,0.009250643426179886,-0.01242149201463908,0.012853271028026938
1715194791821066800,10.727066650390626,-0.003616436931490898,-0.007178915186040103,-0.004069149135053157
1715194791831140900,10.737140869140624,-0.0010737667113542555,-0.015083222037181257,0.025419761003926396
1715194791841215000,10.747215087890625,0.015389292311668395,-0.009187368931621313,0.011923369766771793
1715194791851288800,10.757288818359376,-0.010188801059126854,-0.010099218512955121,0.0025786183163523674
1715194791861364000,10.767364013671875,0.013017887005209922,-0.01676766342620831,0.030312793742492794
1715194791871437800,10.777437744140625,0.020043840119242668,-0.025423482764395884,0.01390102651529014
1715194791881512000,10.787511962890624,0.0041822541207075115,-0.008086969941668212,0.002221621572226286
1715194791891585800,10.797585693359375,0.00492693500816822,-0.021697269882075487,0.0020920769084244967
1715194791901661000,10.807660888671874,0.023909867897629736,-0.0020330401975661517,0.011227277261391281
1715194791911734800,10.81773486328125,-0.002449146717786789,-0.0008651608953950926,0.012304551104083657
1715194791921809000,10.827808837890625,0.0036918402552604673,0.004369776049442589,0.021832550166919828
1715194791931882800,10.8378828125,0.011619126123189926,-0.011684117650799453,0.008987243249639868
1715194791941958000,10.8479580078125,0.016418050837516785,-0.024099910577014088,0.005752279916405678
1715194791952031700,10.85803173828125,0.009397942942380905,-0.014856792870163917,-0.003775353820249438
1715194791962105900,10.86810595703125,-0.005260112485289573,-0.00976684932000935,-0.003826937877014279
1715194791972180000,10.878179931640625,-0.009593173253536223,0.0007168795650824904,0.003011895167082548
1715194791982255000,10.888255126953124,0.011204700103402137,-0.020043292129971087,0.011703297275304794
1715194791992329000,10.898328857421875,0.017194295907020568,-0.022464089536108074,0.01331774673461914
1715194792002402800,10.90840283203125,-0.011379472148418427,-0.022723210829752497,0.009215206786617636
1715194792012477000,10.918476806640625,-0.019019173246622084,-0.0291912743326975,0.008079480754956602
1715194792022551800,10.9285517578125,0.013443418940901756,-0.012325813087821005,0.01563011533021927
1715194792032626000,10.9386259765625,0.008653262054920195,-0.012013271973351947,0.004870747841522098
1715194792042700300,10.9487001953125,-0.012123568513989448,-0.012056640757620333,0.01695917197689414
1715194792052774100,10.958774169921876,0.006576455780863762,-0.013301526252180337,0.02927563271448016
1715194792062849300,10.968849365234375,0.011505144354701041,-0.018571319881267846,0.0031583179004490373
1715194792072923100,10.978923095703125,0.010156067833304404,-0.011818667283281683,0.005121580797433853
1715194792082997000,10.9889970703125,0.0263122528642416,-0.02096844415087253,0.016975392459332942
1715194792093071000,10.999071044921875,-0.0010737667113542555,-0.009544584871456027,0.0035176527321338653
1715194792103146200,11.009146240234376,0.004477437674999237,-0.02032046053695958,0.005648235020041466
1715194792113220000,11.01922021484375,0.008821019837260245,-0.014576619655336253,0.009509513558074832
1715194792123294200,11.029294189453125,0.0008995791882276535,-0.01749737050682306,0.009577975684404372
1715194792133368300,11.039368408203124,0.0017997428983449935,-0.0026165391739457846,0.00806684046909213
1715194792143443200,11.049443115234375,0.01690261948406696,-0.02603526255376637,0.019377192904055117
1715194792153517300,11.059517333984376,0.00822130037844181,-0.01279266341459006,0.0027907997623085974
1715194792163591200,11.069591064453125,-0.002696399477124214,-0.019292400697432457,0.013213117316365241
1715194792173665300,11.079665283203125,-0.001064998883008957,-0.02503602238334715,0.016916940270364285
1715194792183740200,11.089740234375,0.00101999069750309,-0.008449373513273893,0.01265738312974572
1715194792193814300,11.099814208984375,0.008939093258976936,-0.013683072915673255,0.001828822862356901
1715194792203888000,11.10988818359375,0.008327683362364769,-0.0010146569352596998,0.015093816496431827
1715194792213962200,11.119962158203125,0.01461480080783367,-0.005630370569787919,0.012978504842892289
1715194792224037000,11.130037109375,0.013717559707164763,-0.012852138516865669,-0.008271277000010013
1715194792234111200,11.140111328125,0.0077250412940979,-0.017370090865343808,0.013471914383023977
1715194792244185000,11.15018505859375,0.004441197317838669,-0.016170250088907778,0.009518938973546028
1715194792254259200,11.16025927734375,0.011620879688858984,-0.020424724629032425,0.023165990727767347
1715194792264334000,11.170333984375,0.002935468930006027,-0.01257770548965782,0.02141293651536107
1715194792274408200,11.180408203125,0.016245032358169556,-0.009809551383997313,0.010106164276972413
1715194792284482300,11.190482421875,-0.00440846409201622,-0.01119223791405093,0.019563143930211663
1715194792294556200,11.20055615234375,0.011749474504590034,-0.02206635892279446,0.01898337128087878
1715194792304631300,11.21063134765625,0.022201894935965538,-0.018694393705087714,0.03053703095242381
1715194792314705200,11.220705078125,0.011560673934221267,-0.02420052140727639,0.007031798332929611
1715194792324779300,11.230779296875,-0.0002530979782342911,-0.016658179736323653,0.004725274956226349
1715194792334853000,11.24085302734375,0.005139116454124451,-0.013037176227569579,0.020393676470220088
1715194792344928300,11.25092822265625,-0.00744447078704834,-0.017343275923654436,0.009579217793419957
1715194792355002000,11.261002197265626,0.003189151430130005,-0.026552272165194152,0.02013210292458534
1715194792365076200,11.271076171875,0.0030529578298330307,-0.008443852521362713,0.023322058072313665
1715194792375150000,11.281150146484375,0.004968436062335968,0.010737374852597712,0.02969086245186627
1715194792385225200,11.29122509765625,0.0023123685956001282,-0.007566302501852623,0.0006667202804237604
1715194792395299000,11.301299072265625,0.03151274411678314,-0.031363691034913065,0.022036621371656656
1715194792405373200,11.311373291015625,-0.012044073536992073,-0.0005061959564685822,0.031553441453352565
1715194792415448000,11.321447998046875,-0.00440671052634716,-0.015497355796024202,0.01459434254169464
1715194792425522200,11.331522216796875,0.030182372295856474,-0.024882800016435794,-0.005339388266578316
1715194792435596300,11.34159619140625,0.027495325168967244,-0.01915288262888789,0.02378931025788188
1715194792445670100,11.351670166015625,0.0062444473475217815,-0.010888400695845485,0.016174889731407165
1715194792455744300,11.361744140625,0.0032540333598852157,-0.01635558006055653,-0.010937719730287789
1715194792465819100,11.371819091796874,0.018822189369797706,-0.007255999010242521,0.012504822916537522
1715194792475893200,11.381893310546875,-0.012466682863235472,-0.010267382720671594,0.003344707318022847
1715194792485967000,11.391967041015626,0.005917699611186981,-0.005614332750439643,0.017431319533288477
1715194792496042200,11.402042236328125,0.013414777368307113,-0.019785915268841197,0.017768953989818693
1715194792506116000,11.4121162109375,-0.0075397478550672525,-0.013068996137939392,0.010475070654600857
1715194792516190200,11.422190185546874,0.010552958196401596,-0.013817179590160957,0.025841639677807688
1715194792526264000,11.43226416015625,0.014286299505829811,-0.025190043901279567,0.014825959340482949
1715194792536339200,11.442339111328126,0.02536883453428745,-0.0050828881882829585,0.016241159900650382
1715194792546413000,11.4524130859375,0.008159341058135032,-0.0031059301260858772,0.005018412683904171
1715194792556487200,11.462487060546875,0.0065104048073291775,0.003205846836604178,0.00503784803673625
1715194792566561300,11.472561279296874,-0.003205518043041229,-0.012773739518411457,0.0390782109349966
1715194792576636400,11.482636474609375,0.012666589349508284,0.010812855808180756,0.004277311993017793
1715194792586710300,11.492710205078126,-0.003033668607473373,-0.00508267355915159,0.00971168506667018
1715194792596784000,11.5027841796875,-0.000786181941628456,-0.014437028521555475,0.017327055441215634
1715194792606858200,11.512858154296875,-0.012469605472683906,-0.025293321612663566,0.008137567617744207
1715194792616933000,11.52293310546875,0.028237083446979522,-0.01572531933300197,0.008544102592021227
1715194792627007200,11.53300732421875,0.006401099213957786,-0.0009023556672036647,0.024609175273403523
1715194792637081000,11.5430810546875,0.02822363944351673,-0.016595526296272874,0.02284947212450206
1715194792647155200,11.5531552734375,0.008488426882028579,-0.01265062459539622,0.02196706326678395
1715194792657230000,11.56322998046875,0.00862169787287712,-0.013292612293362616,0.01192234685346484
1715194792667304200,11.57330419921875,0.0059212067425251005,-0.009128802578221075,-0.0001388239488005638
1715194792677378300,11.58337841796875,0.009962591087818145,-0.025389438930898903,0.020794073964655397
1715194792687452400,11.593452392578126,0.01220364801287651,-0.0025333909351378677,0.019171806525066493
1715194792697527300,11.60352734375,0.022686463582515717,-0.021423713637702166,0.03510492338985204
1715194792707601400,11.613601318359375,0.0021978023052215577,-0.005364340044744313,0.006880114902555942
1715194792717675300,11.62367529296875,-0.006793897923827171,-0.03361216408144682,0.020158406409621236
1715194792727749000,11.6337490234375,0.018480244064331054,-0.006273161985352635,-0.0005203706122934818
1715194792737824300,11.64382421875,0.011771101814508437,-0.008399501922982744,0.002281315870210528
1715194792747898000,11.653898193359375,0.014159458255767822,-0.004109225417114794,0.01503909063450992
1715194792757972200,11.66397216796875,0.016544307565689087,-0.012958411902934312,0.005381985299289226
1715194792768046000,11.674046142578124,0.0068324763685464855,-0.0057466858592582866,0.019323489955440164
1715194792778121200,11.684121337890625,0.007146364623308182,-0.010618643843755125,0.0006481617104262113
1715194792788195000,11.694195068359376,0.019430092135071752,-0.010702961126342414,0.031959684166684744
1715194792798269200,11.704269287109375,0.005939911442995071,-0.003575260104308836,0.031997751154750585
1715194792808343300,11.71434326171875,0.007878186029195785,-0.011209810103359632,0.02068243028372526
1715194792818418200,11.724418212890624,0.011164368093013763,-0.0026977146513760086,0.0017207593780010938
1715194792828492300,11.7344921875,0.009367547804117202,-0.018021248250454664,0.004869578797742724
1715194792838566400,11.74456640625,0.018341712376475333,-0.019307415603473783,0.017176394924148915
1715194792848640300,11.75464013671875,0.007112462353706359,-0.01726896857842803,0.026356676527857777
1715194792858715400,11.76471533203125,0.013238251757621765,-0.003026179420761764,-0.00021261983737349508
1715194792868789200,11.774789306640624,0.007561959686875343,-0.007909896341711282,0.01018061775267124
1715194792878863000,11.784863037109375,0.018190321207046507,-0.003101473146677017,0.01029591469541192
1715194792888937200,11.794937255859375,0.012071546065807341,-0.020515585816837847,0.0335080095872283
1715194792899012000,11.80501220703125,0.006069675302505493,0.00037478812914341686,0.0224082311630249
1715194792909086200,11.815086181640625,-0.016081950750946997,-0.01089209049027413,0.03247340584248304
1715194792919160000,11.82516015625,0.009663900402188301,-0.009603840778023004,0.010405658680200576
1715194792929234200,11.835234130859375,0.022984569746255873,-0.00532638265453279,0.000054214405268430705
1715194792939309000,11.84530908203125,-0.006074351477622986,-0.003645809156447649,0.026013635243847966
1715194792949383200,11.855383056640624,0.008138298270106314,-0.015041570285963824,0.013764102262631058
1715194792959457300,11.865457275390625,0.006636661535501479,-0.02428644612506032,0.007517536023259163
1715194792969531400,11.875531494140626,0.009800678524374962,-0.01921275958996266,0.022758944296836853
1715194792979606300,11.885606201171875,-0.0042751931011676784,-0.009326626705261878,0.017151771939545868
1715194792989680400,11.895680419921876,0.007093173131346702,-0.017517536512017248,0.02870221674069762
1715194792999754200,11.905754150390624,0.006478840625286102,-0.023428039197437463,-0.00035378187373280524
1715194793009828000,11.915828125,0.003643909460306167,0.006548330231499858,0.008108926045149564
1715194793019903200,11.9259033203125,-0.015960954719781876,-0.017917751343362032,0.01724865644276142
1715194793029977000,11.93597705078125,-0.0006856441766023635,-0.013590604292671195,-0.0008014525759965181
1715194793040051500,11.946051513671875,0.01890168434679508,-0.01999133818044793,0.01368256145901978
1715194793050125300,11.956125244140624,0.02115092457830906,-0.0151996149584651,0.022920564599335193
1715194793060200400,11.966200439453125,-0.003545125260949135,-0.005577507871389388,0.02940086652934551
1715194793070274300,11.9762744140625,0.011419219636917114,-0.003290675575844943,0.005149637848138809
1715194793080348400,11.986348388671875,0.019952070182561874,-0.015931801690533758,0.011844020920246839
1715194793090422300,11.99642236328125,0.014271686458587646,-0.011815306282415986,0.021373700483515858
1715194793100497400,12.006497314453124,0.0024526538491249084,-0.013393588449805973,0.023602336318418383
1715194793110571300,12.0165712890625,0.005883212819695473,-0.011784253557026385,0.027434827153384685
1715194793120645600,12.026645751953126,0.004091068705916404,-0.01744786880929023,0.00810761087089777
1715194793130719500,12.036719482421875,0.011740706676244736,-0.007205255203694105,0.014993717122822998
1715194793140794600,12.046794677734376,0.010095277556777,0.00016027316220570354,0.020227233862131832
