time,seconds_elapsed,z,y,x
1711649886527896600,0.075896484375,0.030881460475921628,-0.07514730318188667,0.21248868527449666
1711649886537970400,0.085970458984375,0.045158992153406144,-0.11935381691604852,0.2166246160354465
1711649886548044800,0.096044921875,-0.028964813199639318,-0.17725012556761502,0.10399718476496636
1711649886558118700,0.10611865234375,-0.13591478335559368,-0.12442162169963121,0.1097073425726965
1711649886568192500,0.116192626953125,-0.2539285838395357,-0.08424977030903101,0.0939811099242419
1711649886578267600,0.126267578125,-0.25925474729835984,-0.05197597869187593,0.09534837968945503
1711649886588341500,0.136341552734375,-0.15063304453790186,-0.05323533110320568,0.13355305919293314
1711649886598415600,0.14641552734375,-0.01953998225033283,-0.048235623119771476,0.1490868014765903
1711649886608489500,0.156489501953125,0.13380699742138386,-0.03856324715018272,0.15513101354427636
1711649886618563600,0.1665634765625,0.28231004419326783,-0.050315352003276345,0.08897687189616263
1711649886628637400,0.176637451171875,0.31268998488783833,-0.10229980626255274,-0.0019006825221702455
1711649886638711800,0.1867119140625,0.32307284721434115,-0.13790771073848007,-0.06741612440794706
1711649886648785700,0.19678564453125,0.3197282129615545,-0.09280570946931839,-0.10773191431388258
1711649886658860800,0.20686083984375,0.28950492413342,-0.06973842987567186,-0.11946666617337613
1711649886668934700,0.2169345703125,0.24686639036834238,-0.07162994271069764,-0.15547237432785332
1711649886679008500,0.227008544921875,0.28184710285663606,-0.08164689433425665,-0.200261071864143
1711649886689082600,0.23708251953125,0.3634089492559433,-0.01506049874871969,-0.2115558979364112
1711649886699156500,0.247156494140625,0.34117373657226563,0.025709318535029887,-0.17457602925384416
1711649886709230600,0.257230712890625,0.7229033554166555,-0.294016264078021,0.08057035114392638
1711649886719304400,0.267304443359375,0.46597558976113795,-0.2003480925604701,0.1420534322410822
1711649886729378800,0.27737890625,0.01858545800447464,0.019819091452658175,0.04759484099820256
1711649886739453400,0.287453369140625,-0.17460370271205902,0.01620382356494665,-0.23282080428320914
1711649886749527800,0.29752783203125,-0.34214930360615253,-0.020604981133341787,-0.32098836909048256
1711649886759601700,0.3076015625,-0.365337871491909,-0.08918634992837905,-0.37883302062004803
1711649886769675500,0.317675537109375,-0.19834347473978994,-0.021807050399482247,-0.377336863778159
1711649886779749600,0.32774951171875,-0.01134089370369911,0.02343801260218024,-0.21499785508383065
1711649886789823500,0.337823486328125,-0.14447043025493622,0.09014014352187513,-0.09443462584540248
1711649886799897600,0.347897705078125,-0.4667658633559942,0.05479585841819644,-0.05236132474765181
1711649886809971500,0.357971435546875,-0.6644336307913065,0.12495821279436349,-0.07325871295630931
1711649886820046600,0.368046630859375,-0.7278408118188381,0.41164910242035985,-0.09239077199287712
1711649886830120400,0.378120361328125,-0.8268342700123786,0.5766181308247149,0.012312588280066847
1711649886840194800,0.38819482421875,-0.9009726884126663,0.3894945537574589,0.13006656878404319
1711649886850268700,0.3982685546875,-0.8055138340860605,0.10162687543705105,0.13880725339408964
1711649886860342300,0.40834228515625,-0.4417775525718927,-0.019366379249095917,0.07831585021540523
1711649886870416400,0.41841650390625,-0.12601298254430293,0.04406535169780254,0.030666210290044543
1711649886880490200,0.428490234375,-0.08134966495335101,0.09032996700555086,0.050262233576551074
1711649886890564400,0.438564453125,0.00032090251743793486,0.10568389574289322,0.016504998468607663
1711649886900639200,0.44863916015625,0.12255319747924803,0.08104717487543821,-0.05791121395975351
1711649886910713300,0.45871337890625,0.03963876742720604,0.19033494032919407,0.022406185336411
1711649886920787500,0.468787353515625,-0.15440730237960815,0.4220179362215101,-0.08133161784000695
1711649886930861300,0.478861328125,-0.3513724745035171,0.5334101266086101,-0.20267624324709177
1711649886940935400,0.488935302734375,-0.5082505509108305,0.45280616545602675,-0.32660306716710324
1711649886951009300,0.49900927734375,-0.4771399578541517,0.3709323304980993,-0.3788138775281608
1711649886961083400,0.50908349609375,-0.2949877394586801,0.32669045318961143,-0.37467970033288
1711649886971157200,0.5191572265625,-0.056684594774246214,0.23096768722981212,-0.22000176431834698
1711649886981232400,0.529232421875,0.17298925325274467,0.11319324845969676,-0.07064809206649661
1711649886991306200,0.53930615234375,0.3739695062369108,0.02406725041642785,-0.11356566196866333
1711649887001380400,0.54938037109375,0.5276853192210197,-0.03813727682307362,-0.11006934428550302
1711649887011454500,0.559454345703125,0.6592126812726259,-0.13550152637958526,-0.06958937679380178
1711649887021528300,0.5695283203125,0.723963678124547,-0.1954996296159923,-0.13641016565710307
1711649887031602400,0.5796025390625,0.6841483850866555,-0.21804054724797606,-0.12647029785774647
1711649887041676300,0.58967626953125,0.5630810422509909,-0.2884019313275814,-0.01892024291679263
1711649887051750400,0.59975048828125,0.4251385524600744,-0.42884354445785283,0.20046251272037624
1711649887061825300,0.6098251953125,0.3106739688903093,-0.7013625547379255,0.5899246255129575
1711649887071899400,0.6198994140625,0.2689560571014881,-0.7876084673002361,0.8108064606014639
1711649887081973200,0.62997314453125,0.24559213264882562,-0.6658418901540338,0.6943664122402667
1711649887092047400,0.64004736328125,0.19009061017930506,-0.499075603069365,0.3907091902442276
1711649887102121500,0.65012158203125,0.06643851154744625,-0.3653169748343527,0.18750176272988317
1711649887112195300,0.6601953125,0.004527706557512283,-0.0829772661551833,0.0738911656409502
1711649887122269400,0.67026953125,-0.09361118063330649,0.15962781350687144,-0.16464666458219288
1711649887132343300,0.68034326171875,-0.2044014596045017,0.19430165200307964,-0.3262406635954976
1711649887142417400,0.69041748046875,-0.20269582473039627,0.09580869067758321,-0.34215500269457694
1711649887152492300,0.7004921875,-0.11009469792246818,-0.04825286651551723,-0.30432635342925785
1711649887162566400,0.71056640625,-0.020303952360153196,-0.12952698201462626,-0.1765093902029097
1711649887172640300,0.72064013671875,0.13238076401054857,-0.1251663025870919,-0.1602688878893852
1711649887182714000,0.730714111328125,0.29251930351853367,-0.1568500193566084,-0.11131094184443353
1711649887192788500,0.74078857421875,0.3293663944005966,-0.13487564956620335,-0.0034765900693833826
1711649887202862300,0.7508623046875,0.20838088462948798,-0.14332900513485072,-0.07148863454386592
1711649887212936400,0.7609365234375,0.11322072098851203,-0.10420827023237943,0.19536051340624688
1711649887223010300,0.77101025390625,-0.009226678028702735,-0.09867387085035442,0.329864553181082
1711649887233085400,0.78108544921875,-0.046157355540990826,-0.19205095046684145,0.4794871055021882
1711649887243159300,0.7911591796875,0.04111585424244404,-0.2159489087309688,0.5452132309965789
1711649887253233400,0.8012333984375,0.226615044978261,-0.20077457434423265,0.6709661012999713
1711649887263307300,0.811307373046875,0.34029110851883887,-0.15451821540817617,0.9590893618166446
1711649887273381000,0.821381103515625,0.2577577867388725,-0.21009616411477325,0.7366406427375972
1711649887283455500,0.83145556640625,0.03690028237402439,-0.2818036290410906,0.5606089530490338
1711649887293529300,0.841529296875,-0.18110884682238101,-0.25957338479347525,0.5868107312761247
1711649887303603500,0.851603515625,-0.33307577031254765,-0.2794046781405806,0.613715543206036
1711649887313678300,0.86167822265625,-0.3671311846494674,-0.27728016026727853,0.5849458141870796
1711649887323752400,0.87175244140625,-0.36246845353543755,-0.24086481186598538,0.44831849864795803
1711649887333826300,0.881826416015625,-0.28716742109656335,-0.15981909829527138,0.34999884806275366
1711649887343900400,0.891900390625,-0.1416208860427141,-0.06283398424945771,0.23987433952391146
1711649887353974300,0.901974365234375,-0.05943477026522159,0.02734576063044369,0.18994389518499374
1711649887364048100,0.912048095703125,-0.04654489355385303,0.10710201891250908,0.14855843022093176
1711649887374122500,0.92212255859375,-0.14955050999820232,0.17664828721694648,0.1251081426590681
1711649887384196400,0.9321962890625,-0.2771288421630859,0.20324644435048103,0.05053893162608147
1711649887394271500,0.942271484375,-0.20386311494410037,0.2474672788709402,-0.0652041474469006
1711649887404345300,0.952345458984375,-0.057032969820499414,0.3334136239647865,-0.25092954815402624
1711649887414419500,0.96241943359375,0.05726210240125656,0.35060777374133467,-0.3546133561208844
1711649887424493300,0.972493408203125,0.23745675698816776,0.2451199850924313,-0.35934564533978697
1711649887434567400,0.9825673828125,0.4106950165659189,0.06433014109134674,-0.15396671900525688
1711649887444641300,0.992641357421875,0.5186129549711942,0.16105404691770672,-0.3002168722838163
1711649887454715100,1.002715087890625,0.4984492878645658,0.10722527996599673,-0.4042465710788965
1711649887464789500,1.01278955078125,0.3774982648849487,0.017721534651517868,-0.5466409257121384
1711649887474864000,1.022864013671875,0.22626257827877996,0.04638678038269281,-0.7339288995608687
1711649887484938500,1.0329384765625,0.1177840833812952,0.06260930864810943,-0.5786177802093326
1711649887495012400,1.043012451171875,0.11529051299989222,0.11705416167154907,-0.2829344597019255
1711649887505086500,1.05308642578125,0.11407996816635131,0.1860632543593645,-0.17498992555066942
1711649887515160300,1.063160400390625,0.09328969359397887,0.2098169087819755,-0.2448769701167941
1711649887525234200,1.073234130859375,0.09599135376811027,0.16290332804620264,-0.2587517662122846
1711649887535308300,1.083308349609375,0.07018529686033725,0.1371672676347196,-0.2597572899930179
1711649887545382100,1.093382080078125,0.03731061674058437,0.20787717289105057,-0.27427878649421034
1711649887555457300,1.103457275390625,-0.03485504028201103,0.28487244202718137,-0.33648477503843605
1711649887565531100,1.11353125,-0.13054302718937397,0.2353724980600178,-0.364257967300713
1711649887575605500,1.12360546875,-0.07005904013216495,0.19608312859237192,-0.28578509989269074
1711649887585679400,1.133679443359375,0.17634031724631785,0.18968188324794172,-0.23640147578157483
1711649887595753500,1.14375341796875,0.3450736666202545,0.09100494365766644,-0.20085209655985234
1711649887605827300,1.153827392578125,0.43256607211232184,0.055089726798236364,-0.154552117677778
1711649887615901200,1.163901123046875,0.3506032436966896,0.16608970299735665,-0.19760281244032082
1711649887625975300,1.173975341796875,-0.013628127858042717,0.18164046948105095,-0.19541158600635825
1711649887636050200,1.18405029296875,-0.3099567605316639,0.0694571287162602,0.06303549817092716
1711649887646124300,1.194124267578125,-0.31778818480968474,-0.11083923267945646,0.3434318907625973
1711649887656198100,1.2041982421875,-0.17958558277785777,-0.1622102312155068,0.41256190641634166
1711649887666272500,1.2142724609375,-0.05111000951230526,-0.05878273609727621,0.274546570584923
1711649887676346400,1.224346435546875,0.008626374047994613,0.0525306899651885,0.010231251961365342
1711649887686420500,1.23442041015625,0.07059387766122818,0.07614215943813324,-0.19904840813875196
1711649887696494300,1.244494384765625,0.025022213053703307,0.050938452337682245,-0.2781209950055927
1711649887706568200,1.254568115234375,-0.130201666405797,0.01690130430981517,-0.2812739791437983
1711649887716642300,1.264642333984375,-0.2281172662347555,-0.020837620845437048,-0.1957918905608356
1711649887726717200,1.27471728515625,-0.20940262889266012,-0.027640871119499207,-0.044217692715302105
1711649887736791300,1.284791259765625,-0.1788473316311836,-0.04354162008464336,0.04748400103487074
1711649887746865200,1.294865234375,-0.1271042849123478,-0.0714879038915038,0.07029116838760674
1711649887756939500,1.304939453125,-0.033623452660441394,-0.08997793869748712,0.08325725214034319
1711649887767013400,1.315013427734375,0.04500584741830826,-0.09124795863330364,0.07307013158164918
1711649887777087500,1.32508740234375,0.071664721763134,-0.06401683735847473,0.08121485959254204
1711649887787161300,1.335161376953125,0.017975217151641843,-0.11300006397515534,0.08956029780730605
1711649887797235200,1.345235107421875,0.016757073533535,-0.16212021484449504,0.1497744549471885
1711649887807310300,1.355310302734375,0.04320493547618389,-0.20398761810660362,0.17662523513492195
1711649887817384200,1.36538427734375,0.275752293112874,-0.2619033621110022,0.24001184829846023
1711649887827458300,1.375458251953125,0.055037412089109415,-0.33392142735645175,0.13404511702619493
1711649887837532200,1.3855322265625,0.07569266210496425,-0.1904885234557092,-0.01825995237715542
1711649887847606500,1.3956064453125,0.3332540494889021,-0.0018196166425943374,0.07102320898920297
1711649887857681000,1.405680908203125,0.48001405198574065,0.028188568130135535,0.11178992100041359
1711649887867755000,1.415755126953125,0.3695604576230049,0.02765124638304114,0.04708090012669563
1711649887877828900,1.425828857421875,0.1666080277830362,0.07309197808727622,-0.029730756070837378
1711649887887902700,1.43590283203125,-0.03715279583036899,0.05949658345505595,-0.061054991878196595
1711649887897977900,1.445977783203125,-0.20529636261761186,-0.012280220380425453,-0.012197218272089957
1711649887908051700,1.4560517578125,-0.2700713248670101,-0.03169306911975145,0.1434362649016082
1711649887918125800,1.466125732421875,-0.2609083597242832,-0.01406695766672492,0.22301037154980002
1711649887928199700,1.47619970703125,-0.25308570327460767,-0.008143412836641073,0.23912571311369538
1711649887938273800,1.486273681640625,-0.22093407673239707,0.06700871265083551,0.176551768039912
1711649887948348000,1.496347900390625,-0.17694529740214346,0.1815180121451616,0.08110738063007593
1711649887958422000,1.506422119140625,-0.14028291543722152,0.19574965885430573,-0.01735766977518797
1711649887968495900,1.516495849609375,-0.07343582308888436,0.14257511802762746,-0.07908285253252834
1711649887978571000,1.526571044921875,-0.015697919869422913,0.15051950116083024,-0.16531049878578633
1711649887988644900,1.536644775390625,0.010613163951039313,0.1583271061718464,-0.23064356984198092
1711649887998718700,1.54671875,0.08188800961375237,0.15487681958749888,-0.29220380782857536
1711649888008792800,1.556792724609375,0.15625556059479712,0.12889993615746498,-0.27328027697615326
1711649888018866700,1.56686669921875,0.19747955138683318,0.07913622668758034,-0.12660513975117355
1711649888028940800,1.57694091796875,0.17832301549613475,0.007171499064564705,-0.046679479718953365
1711649888039015000,1.587014892578125,0.11351532002091407,-0.055848436211049554,0.030053704414889214
1711649888049089000,1.597089111328125,0.046211716076731676,-0.11421265463531016,0.07114610471650958
1711649888059163000,1.607162841796875,-0.02682897021472454,-0.11862243390157819,0.0689933836620301
1711649888069238000,1.617238037109375,-0.11453297263085842,-0.11089563904181123,0.047354821697250006
1711649888079312000,1.627311767578125,-0.15268705445826053,-0.0984191654369235,0.055831850402429696
1711649888089385700,1.6373857421875,-0.12389233712852,-0.1244121232189238,0.060702890504896634
1711649888099459800,1.6474599609375,-0.03658873220682144,-0.11624985955134033,0.05121463893055916
1711649888109533700,1.65753369140625,0.05564531485438347,-0.09784107328802347,0.10078227783907204
1711649888119607800,1.66760791015625,0.08411796062290668,-0.09460969015136361,0.11493212801627814
1711649888129682000,1.677681884765625,0.059442953571677205,-0.127714671895653,0.1142574070924893
1711649888139755800,1.687755859375,0.10654840361773966,-0.18595687137544153,0.1450097978286445
1711649888149830000,1.697829833984375,0.23558336433172225,-0.19028510983809827,0.11913166206534952
1711649888159904800,1.70790478515625,0.3554045064985752,-0.14919497455880046,0.026287849075347182
1711649888169979000,1.717978759765625,0.4207756810754537,-0.06927987245321274,-0.10861699005272239
1711649888180052700,1.728052734375,0.40428865665495395,0.06785714617371559,-0.3116933020006865
1711649888190126800,1.738126953125,0.3092792996615171,0.11002017138153314,-0.36045667532160874
1711649888200200700,1.74820068359375,0.10653203700482845,0.08738719155192375,-0.3671262892786413
1711649888210274800,1.75827490234375,-0.03189560595452785,0.1428361070513725,-0.3198580498863011
1711649888220349000,1.768348876953125,-0.07629355060756206,0.18514073268696665,-0.3027923487950116
1711649888230422800,1.7784228515625,-0.11251169593632221,0.189247729614377,-0.17013211025595665
1711649888240497000,1.788496826171875,-0.1528846228569746,0.17225991606488822,-0.07189666735548525
1711649888250571800,1.79857177734375,-0.20578093126416205,0.1485553614810109,-0.04442954536769539
1711649888260646000,1.80864599609375,-0.21956688003242014,0.1198120820775628,-0.04168897795528173
1711649888270719700,1.8187197265625,-0.20594576643705367,0.09854849090501666,-0.059219775807671245
1711649888280793900,1.8287939453125,-0.13621639665067195,0.05438859279155731,-0.019513459569588304
1711649888290867700,1.83886767578125,-0.04168634760677814,0.027110855896025896,0.11050178088601678
1711649888300941800,1.84894189453125,0.048717561417818064,-0.014978373423218725,0.15134714762400836
1711649888311016000,1.859015869140625,0.062463178175687785,-0.027923487453162667,0.20414558514729142
1711649888321089800,1.86908984375,0.004568623089790344,0.001884206311404705,0.16348850752301514
1711649888331164000,1.879163818359375,-0.022094927430152893,-0.014519962131232023,0.04071129202954471
1711649888341238800,1.88923876953125,-0.016764087796211243,-0.02462035425454378,-0.017895868305116892
1711649888351313000,1.89931298828125,-0.028045944789052007,-0.04767375145331025,-0.0006496230151504278
1711649888361386800,1.90938671875,-0.03570201250016689,-0.11356865764334798,0.12577281711287797
1711649888371460900,1.9194609375,-0.015346622213721274,-0.20258111230954526,0.33094971806928514
1711649888381534700,1.92953466796875,-0.08296820606589317,-0.21882073784023523,0.2979097643852234
1711649888391608800,1.93960888671875,-0.1348240655094385,-0.12919541197270154,0.27754553320519626
1711649888401683000,1.949682861328125,-0.14766191977262497,-0.08500468032956122,0.21729908123090863
1711649888411756800,1.9597568359375,-0.12338497212827206,-0.03401449780464172,0.16804755906686186
1711649888421831000,1.969830810546875,-0.12366086646020412,0.04165419890284538,0.10997370189130305
1711649888431905800,1.97990576171875,-0.13466449103355407,0.11351590454280376,-0.013512392523884772
1711649888441980000,1.98997998046875,-0.13202479017972946,0.17018910114020108,-0.1596612043198198
1711649888452053800,2.0000537109375,-0.04098199872970581,0.20847177778333426,-0.22175752194449305
1711649888462127900,2.0101279296875,0.10709902323782443,0.2720074074961245,-0.29082543214745815
1711649888472201700,2.02020166015625,0.19732874473929404,0.23047186653688548,-0.3835618027076125
1711649888482275800,2.03027587890625,0.23823709371089935,0.1341758307337761,-0.44611141705773766
1711649888492350000,2.040349853515625,0.3065706252247095,0.09524564996734261,-0.5202255777996033
1711649888502423800,2.050423828125,0.366725526458025,0.03907324249893427,-0.5447824383638799
1711649888512498000,2.060497802734375,0.3274620220839977,0.005365910947322845,-0.5122632936835289
1711649888522571800,2.07057177734375,0.2133469826042652,-0.09027063803374767,-0.3471683008119464
1711649888532647000,2.08064697265625,0.1894447134912014,-0.19563648080341517,-0.032058395300805564
1711649888542720800,2.090720703125,0.22251228583455085,-0.30614377811476584,0.21126564628556369
1711649888552795000,2.100794921875,0.15612287412583828,-0.41108094714358445,0.36471827828884124
1711649888562868700,2.11086865234375,0.04133621899485588,-0.45425811783000825,0.4077617395929992
1711649888572942800,2.12094287109375,-0.06545826833844184,-0.3370836177144199,0.26276640868112444
1711649888583017000,2.131016845703125,-0.18409049298167227,-0.24222009893245994,0.09809724000617862
1711649888593090800,2.1410908203125,-0.21897768196761608,-0.12288440219499171,-0.06904138752222061
1711649888603165000,2.1511650390625,-0.2214467024296522,-0.15192520324029027,-0.1459508780710399
1711649888613238800,2.16123876953125,-0.14892039540112018,-0.2445380204860121,-0.02934855182021856
1711649888623314000,2.17131396484375,-0.07820493718683719,-0.25758652182519437,0.17114464829936624
1711649888633387800,2.1813876953125,0.043267479318380354,-0.18157419931180774,0.223452927685529
1711649888643462000,2.1914619140625,0.1755365996479988,-0.15424666845779866,0.1911575087584555
1711649888653535700,2.20153564453125,0.2610813782036304,-0.12212912684828042,0.11018909820765256
1711649888663609900,2.21160986328125,0.25030922429859637,-0.010861987612955272,-0.03881649125888943
1711649888673684000,2.22168408203125,0.18652678021788596,0.06632288581114262,-0.1690577590227127
1711649888683757800,2.2317578125,0.1200537818789482,0.05186082787960768,-0.25667452154681086
1711649888693832000,2.24183203125,0.1219973171621561,0.03861943431682884,-0.18971125547289847
1711649888703905800,2.25190576171875,0.10654022031128406,0.022299985015578568,-0.051357700663059946
1711649888713979600,2.261979736328125,-0.023504794228076935,-0.021655111240781844,-0.04063187011778355
1711649888724054800,2.2720546875,-0.11464578535556792,-0.001680281237140298,0.01709331975057721
1711649888734129000,2.28212890625,-0.18280279125869273,0.0876090176090598,0.0034971944659948346
1711649888744202800,2.29220263671875,-0.2522586048007011,0.1021024570595473,-0.08208893901333213
1711649888754276900,2.30227685546875,-0.25772154638171196,0.028935915898717936,-0.04899243283644318
1711649888764351000,2.31235107421875,-0.18416005108654498,0.07495033757137134,-0.09544409514889121
1711649888774424800,2.3224248046875,-0.15541326455175875,0.11732616527965292,-0.13801336307004095
1711649888784499000,2.3324990234375,-0.19251696054339407,0.04454734479477629,0.12214154793843626
1711649888794572800,2.34257275390625,-0.24399521884620187,0.0425930689218454,0.20547537244632838
1711649888804646700,2.352646728515625,-0.293164031162858,0.07805867885025218,0.15346914474666118
1711649888814721800,2.3627216796875,-0.32649230026900766,0.08907835950925946,0.051625703949481246
1711649888824795600,2.372795654296875,-0.30812311536371706,0.08192112643206492,0.011116729559004307
1711649888834869800,2.382869873046875,-0.18883271907269952,0.07661189584173261,-0.03246010796949267
1711649888844944000,2.39294384765625,-0.05224281293451786,-0.03429296768615022,-0.017421090400218962
1711649888855018000,2.40301806640625,0.05125497094094753,-0.08333389757312834,0.04918211018964648
1711649888865091300,2.41309130859375,0.08202244964838028,-0.1097512182470411,0.17046163447126744
1711649888875165200,2.423165283203125,0.09749474406838417,-0.1118858921881765,0.23951310499608516
1711649888885239300,2.4332392578125,0.09339081588089465,-0.15637513185385613,0.33839754985719916
1711649888895313200,2.443313232421875,0.1240758770018816,-0.2143536023635417,0.38332653264701366
1711649888905387500,2.453387451171875,0.0879512551754713,-0.2280261173525825,0.31482991952598094
1711649888915462100,2.463462158203125,0.03154313925504684,-0.19106416791919617,0.12119769121706485
1711649888925536500,2.47353662109375,0.04641746778190136,-0.08118651028089224,-0.05344035215601325
1711649888935610400,2.4836103515625,0.08292728953361511,0.06916066652033477,-0.17191241780146954
1711649888945684500,2.4936845703125,-0.005243745872378349,0.08818181252833455,-0.1575624054096639
1711649888955758300,2.50375830078125,-0.1866606357306242,0.04583272669650614,-0.0463394341096282
1711649888965832200,2.513832275390625,-0.21854279768168924,0.0388817385148257,0.06910086262449622
1711649888975906300,2.52390625,-0.12161971602141856,0.058690162442997094,0.15744813138023017
1711649888985980200,2.533980224609375,-0.07538052741587162,0.13012012560218572,0.05791267526447773
1711649888996054500,2.544054443359375,-0.11205752242803572,0.14105477659255267,-0.03404840007424354
1711649889006128400,2.55412841796875,-0.05800152259171009,0.09642130615059286,-0.13564064258933067
1711649889016203500,2.56420361328125,0.050127428215742106,0.03714432026296854,-0.16655542081296443
1711649889026277400,2.57427734375,0.11809563354849814,0.01905537707116455,-0.18520254587680102
1711649889036351500,2.5843515625,0.14960954670906065,-0.01904237145911902,-0.22707871696725487
1711649889046425300,2.59442529296875,0.13399053729474544,-0.024061478262767194,-0.20242986727058887
1711649889056499200,2.604499267578125,0.11724515419900416,0.008289945167861879,-0.14632862534224986
1711649889066573300,2.6145732421875,0.04177461041212081,0.058455915295705194,-0.04900193131715059
1711649889076647200,2.624647216796875,-0.06486907027363777,0.02453022828567773,-0.02691694075912237
1711649889086721500,2.634721435546875,-0.1346674136430025,-0.0003879033390432596,0.06790843796953558
1711649889096795400,2.64479541015625,-0.23044249431192873,-0.009958462901972234,0.07047039741203188
1711649889106869200,2.654869140625,-0.26288462823331354,-0.08609485018644482,0.06413491078019141
1711649889116944400,2.6649443359375,-0.21053017161786555,-0.11622187556587159,-0.05192673272266984
1711649889127018500,2.6750185546875,-0.1829436610341072,0.0024677052877843378,-0.20863310582488773
1711649889137092400,2.68509228515625,-0.21357260805368422,0.03080437665171921,-0.23897183772623537
1711649889147166200,2.695166259765625,-0.25664018088579177,-0.06519837529323995,-0.20173940078839658
1711649889157240300,2.705240234375,-0.24255554143190383,-0.2027993216374889,-0.08937909602150321
1711649889167314200,2.715314208984375,-0.21701485746204852,-0.2415167912350036,-0.028102716477587816
1711649889177388500,2.725388427734375,-0.2228361109614372,-0.28423637261334805,0.034581849363818765
1711649889187462400,2.73546240234375,-0.3206307147592306,-0.28348292389754204,0.10697561605386435
1711649889197536300,2.745536376953125,-0.5248708463221788,-0.24427571628801523,0.10147248859293759
1711649889207610400,2.7556103515625,-0.8179290790230035,-0.13985387637019156,0.07065057628452777
1711649889217685200,2.765685302734375,-1.0587702177524565,-0.1203339505271986,0.02411255086287856
1711649889227759400,2.77575927734375,-1.066477723389864,-0.18021171531956642,0.0046745676822960375
1711649889237833200,2.785833251953125,-0.9427274250805378,-0.1439769841821864,0.01699541233405471
1711649889247907300,2.7959072265625,-0.784283414530754,-0.1455687103530392,0.12883505422770977
1711649889257981200,2.805981201171875,-0.6421387968748807,-0.16837503745555876,0.10869907884560524
1711649889268055600,2.8160556640625,-0.45966158430874343,-0.16837960403282196,0.022499197382107376
1711649889278129400,2.82612939453125,-0.3909732480078935,-0.22358429898023605,-0.09734744455218315
1711649889288203300,2.836203369140625,-0.5042056594341993,-0.36430721326991916,-0.27810777019783856
1711649889298277400,2.84627734375,-0.7378928347557783,-0.6146046010002494,-0.6220267138250172
1711649889308351200,2.856351318359375,-0.8263736667633056,-0.7901536948036402,-0.9849746214404702
1711649889318425300,2.86642529296875,-0.7091565696150064,-0.6754203772950917,-0.8550569596078247
1711649889328500200,2.876500244140625,-0.6447948643416166,-0.5109065453123302,-0.8082678089693188
1711649889338574300,2.88657421875,-0.5606611216276883,-0.38405309335589405,-0.6829844558738172
1711649889348648200,2.896648193359375,-0.4365279614806175,-0.2546522036726586,-0.459544972191751
1711649889358722600,2.90672265625,-0.32888825549483297,-0.11832105806851759,-0.17141265158578753
1711649889368796400,2.91679638671875,-0.1709919419556856,0.0193035066133365,-0.026233707735314964
1711649889378870300,2.926870361328125,-0.02307575516104698,0.20482151164747772,-0.028927842190116643
1711649889388944400,2.9369443359375,0.07142389874458313,0.3040277723414823,0.005249298830330372
1711649889399018200,2.947018310546875,0.10839315470159053,0.2804650008484721,0.11507380150929093
1711649889409092400,2.95709228515625,0.10017594597637652,0.24330643286444245,0.21529132160507142
1711649889419166200,2.967166259765625,-0.02035305219888687,0.3123016431573778,0.14479425538182258
1711649889429241300,2.977241455078125,-0.1998217305988073,0.38437374014500525,-0.026621099617704747
1711649889439315200,2.987315185546875,-0.4156003242641687,0.31944417185578494,-0.11814283369109034
1711649889449389300,2.997389404296875,-0.6641893006414175,0.2168465516904369,-0.14010580530464647
1711649889459463400,3.00746337890625,-0.871371915397048,0.2230634169112891,-0.25684030656777324
1711649889469537300,3.017537353515625,-0.9923772989124059,0.2844958272671327,-0.39361309499219055
1711649889479611400,3.027611328125,-1.0398761321902275,0.26062764308676123,-0.33418102814070877
1711649889489685200,3.037685302734375,-0.9943173270642757,0.22596739472448824,-0.2944839546550065
1711649889499759400,3.04775927734375,-0.8915005111902952,0.20428893914073704,-0.28495924352779983
1711649889509833200,3.057833251953125,-0.7685171056002378,0.18295768955945968,-0.13177498013712466
1711649889519907300,3.0679072265625,-0.5804278983712196,0.07321582366265356,0.09212569131590426
1711649889529982200,3.077982177734375,-0.3594517360627651,0.029220541526377198,0.2518473936513066
1711649889540056300,3.088056396484375,-0.1357657302737236,0.15049860450327396,0.2152216904349625
1711649889550130400,3.09813037109375,0.058446928271651266,0.2764512351624667,0.09260200359076261
1711649889560204300,3.108204345703125,0.17255027731359004,0.3682096275359392,0.022836320381984115
1711649889570278400,3.1182783203125,0.16418986072540281,0.40177879272587597,0.06672390436008573
1711649889580352300,3.128352294921875,0.011334463962912558,0.30969336035512385,0.1766661151345819
1711649889590426400,3.13842626953125,-0.29037410818338394,0.024179405554011463,0.39360695751234887
1711649889600500200,3.148500244140625,-0.6030512335896492,-0.268836814635992,0.5966024958416819
1711649889610574300,3.15857421875,-0.8480652740895748,-0.5257349888708442,0.7453289761058985
1711649889620648400,3.1686484375,-1.0374123724251985,-0.8588231802735478,0.9407290178049356
1711649889630722300,3.178722412109375,-1.1189800640434027,-1.179358106508106,1.0960053581040352
1711649889640797400,3.18879736328125,-1.1010609609931707,-1.363464819972217,1.0280837683919817
1711649889650871300,3.198871337890625,-1.1258768378198145,-0.910589973194152,0.47450624834969635
1711649889660945400,3.2089453125,-1.3199018648386,0.015694230074994264,-0.5995622224301099
1711649889671019300,3.219019287109375,-1.7362948007851837,0.2647847992988303,-0.9897258345555513
1711649889681093400,3.22909326171875,-2.2026532523840663,0.11801171812471002,-0.8372304302118718
1711649889691167200,3.239167236328125,-2.6376860068708656,-0.038258565115183586,-0.376571286233142
1711649889701241300,3.249241455078125,-2.883563970723748,-0.32441827047392724,0.2967454698462039
1711649889711315500,3.2593154296875,-2.9307044920831915,-0.5902056344114244,0.8761185254022479
1711649889721389300,3.269389404296875,-2.8508155473321675,-0.36345804909467694,1.110748826792836
1711649889731463400,3.27946337890625,-2.7667735745549202,0.8131152490004897,0.44557511822395024
1711649889741537300,3.289537353515625,-2.613835760205984,1.7186534917630254,-0.25578571948092427
1711649889751612400,3.2996123046875,-2.5243536422014237,2.3390707245647904,-0.6443991430222987
1711649889761686300,3.309686279296875,-2.5941817961871623,2.50936591642797,-0.4593634781450033
1711649889771760000,3.319760009765625,-2.688288651382923,2.1772394096642733,0.09425453830445185
1711649889781834200,3.329834228515625,-2.6800959925770758,1.6282868460088968,0.8319961828202008
1711649889791908400,3.339908447265625,-2.5182769526362416,1.3809089989870786,1.2722479871295391
1711649889801982500,3.349982421875,-2.091701060849428,1.0744757364064454,1.7262635283753276
1711649889812056300,3.360056396484375,-1.401173203858733,1.3265326811552047,1.6012228979945182
1711649889822130400,3.37013037109375,-0.6820616419404745,2.206495314764976,0.7786145751141011
1711649889832204300,3.380204345703125,-0.2569663441002369,2.8783772157356142,-0.08030899679400026
1711649889842278100,3.390278076171875,-2.8831080436497927,4.614041317401826,-1.520687618163973
1711649889852352300,3.400352294921875,-8.501917062720656,7.328871061968803,-1.5846329977214335
1711649889862427000,3.410427001953125,-2.247844977763295,4.764322187501191,-0.390848306453973
1711649889872501200,3.420501220703125,0.8036182295978069,2.1565672085136174,-0.5135016033068299
1711649889882575000,3.4305751953125,-0.25459201618433,1.4511919110029936,-0.12738551300652323
1711649889892649200,3.440649169921875,-0.4789548983216285,1.1985288170546293,-0.15397862863875925
1711649889902723000,3.45072314453125,0.5541495477765799,1.0458815100848675,-0.258528040459007
1711649889912797000,3.460796875,1.6558727720707653,1.340462130047381,-0.6019169688627124
1711649889922871000,3.47087109375,2.4712328773885965,2.666003169816732,-0.7167682136625051
1711649889932945000,3.48094482421875,3.079697368198633,4.0467724680721755,-1.08367114251405
1711649889943019300,3.491019287109375,3.6644057203680274,4.237887160602211,-0.887843449987471
1711649889953093000,3.501093017578125,3.908927593436837,3.9521383741319176,-0.05996350684706121
1711649889963167200,3.511167236328125,4.432352332603931,3.4957948283299802,0.2633912260485813
1711649889973242000,3.5212421875,5.287866753655671,2.844841441358626,0.06854637054689228
1711649889983316200,3.531316162109375,5.86292581847012,2.2115531826764343,0.19298677001222966
1711649889993390000,3.54139013671875,6.453803799185156,1.9188883332073687,-0.06750555625706911
1711649890003464000,3.5514638671875,6.646352323910594,1.9407836464121937,-0.0614702216155827
1711649890013538000,3.5615380859375,6.344794558411836,2.0189237016692756,0.09705017863865942
1711649890023612000,3.57161181640625,6.037443596464395,1.8950610290266572,0.1048304937839508
1711649890033686300,3.581686279296875,5.6802814326435325,1.6173970570735632,0.06130925890021026
1711649890043760000,3.591760009765625,5.228256042301655,1.160846736653149,0.05592866184040904
1711649890053834200,3.601834228515625,4.530104266303778,0.8463115622900426,0.03366173884421587
1711649890063908000,3.611908203125,3.817756207171082,0.44730128442943096,0.18410598281174897
1711649890073982000,3.62198193359375,3.3240514834851025,-0.012350509137660264,0.37145989803615953
1711649890084056000,3.63205615234375,2.9830238773852584,-0.5621022603467106,0.2675506472829729
1711649890094131000,3.642130859375,2.5703145983874798,-1.0639527349568902,0.10794457068387418
1711649890104205000,3.652205078125,2.335356672477722,-1.4846424913145602,0.2339311036126688
1711649890114279000,3.66227880859375,2.2989748610198495,-1.9049752509281037,0.4351354842089116
1711649890124353300,3.672353271484375,2.300156764280796,-2.3393586015954613,0.48521772157605736
1711649890134427100,3.68242724609375,2.1820336582034825,-2.582540458232164,0.7602774658475071
1711649890144501000,3.6925009765625,1.6906565006822347,-2.76375276542902,0.8939438126891851
1711649890154575000,3.7025751953125,1.1739157693237066,-2.9406109690696,0.7027949256286025
1711649890164649000,3.71264892578125,0.6797463507354259,-2.9616210238724947,0.198173671130836
1711649890174723000,3.72272314453125,0.17563889097869395,-3.0025951315566894,-0.3264458307787776
1711649890184797000,3.732796875,-0.10389116710722446,-2.943561051046848,-0.4953307174526155
1711649890194871300,3.742871337890625,-0.1535468861579895,-2.875359913741052,-0.48324704255759715
1711649890204946000,3.75294580078125,-0.05486673169732093,-2.9669287748917936,-0.596073649661988
1711649890215020300,3.763020263671875,0.04333294577002525,-3.099979108726978,-0.5097065218728035
1711649890225094100,3.77309423828125,0.3365647814720869,-3.3555043141081926,-0.6899931655921041
1711649890235168000,3.78316796875,0.7415770762264728,-3.6337156908109782,-0.6433089366327971
1711649890245242000,3.7932421875,1.0166975011765955,-3.765739604207873,-0.4182482814896852
1711649890255316000,3.80331591796875,1.2691758862078188,-3.4656665243089195,-0.337048984792456
1711649890265390000,3.81339013671875,1.2387924383819102,-2.8943390472382307,-0.45149300049822777
1711649890275464000,3.8234638671875,1.0435404999166726,-2.525206459638476,-0.6009934608096257
1711649890285538300,3.833538330078125,0.8872738334059714,-2.346341884611547,-0.5266531631616875
1711649890295612200,3.843612060546875,0.7162059036046267,-2.295445517849922,-0.3174721045978367
1711649890305686000,3.85368603515625,0.5392191051483154,-2.366640284013748,0.023671894423291085
1711649890315761200,3.86376123046875,0.270323253801465,-2.3168664915412664,0.29941172991339116
1711649890325835000,3.8738349609375,-0.42946401444375515,-2.111377236700058,0.6046589975798502
1711649890335909000,3.8839091796875,-1.7132313205838203,-2.029488934825361,0.9795192786440252
1711649890345983000,3.89398291015625,-2.3332143997520207,-1.9493055371724068,1.07949356456846
1711649890356057000,3.90405712890625,-1.273362816503644,-1.599973044063896,0.42265437096152453
1711649890366131000,3.914130859375,-1.2569874357640742,-1.2102451199419795,-0.3198077810037881
1711649890376205000,3.924205078125,-1.3022767762988805,-0.8300131923094392,-0.502241885080561
1711649890386279200,3.934279052734375,-1.010456560960412,-0.45397871636673803,-0.40407947088368235
1711649890396353000,3.94435302734375,-0.8472638945788145,-0.16344430305510757,-0.5427143268529325
1711649890406427100,3.95442724609375,-0.728515934601426,-0.06310965938568115,-0.46195601538885384
1711649890416501000,3.9645009765625,-0.6416133116960525,-0.1048271327830851,0.21534538987986743
1711649890426576100,3.974576171875,-0.62207274492383,-0.1424741418711841,1.0572879433054476
1711649890436650000,3.98464990234375,-0.6368108798503875,-0.07918415748253464,1.4012547446623445
1711649890446724000,3.99472412109375,-0.629407910117507,0.18191563316062093,1.4435897654362022
1711649890456798000,4.0047978515625,-0.6458008265137672,0.2578204767115414,0.7198837883997709
1711649890466872000,4.0148720703125,-0.5599105955213308,0.14869593899548053,-0.15570833850819615
1711649890476946200,4.0249462890625,-0.6262789644420147,0.17922171790152788,-0.684420260830596
1711649890487020000,4.03502001953125,-1.039929323682189,0.08636120950505137,-1.0094975797351449
1711649890497094100,4.04509423828125,-1.1207616867631673,-0.09126432524621486,-1.2303884749129415
1711649890507168000,4.05516796875,-0.4957739311754703,-0.14490969845503568,-1.3834085607178508
1711649890517242000,4.0652421875,0.17495558488965032,-0.1617978510223329,-1.3819269438579678
1711649890527316000,4.07531591796875,0.3284066094577312,-0.28596038339436053,-1.141808858706057
1711649890537390000,4.08539013671875,0.467219452342391,-0.2497276250183582,-0.709257984162867
1711649890547465000,4.09546484375,0.6778823104292154,-0.08207169561758637,-0.35934009238183495
1711649890557539000,4.1055390625,0.733061176815629,0.008920680819451809,-0.14133748425776138
1711649890567613200,4.11561328125,0.5437994186758994,0.02343538225367665,-0.07990184076521545
1711649890577687000,4.12568701171875,0.32374855451881884,0.008242781557887793,-0.08562852044948376
1711649890587761200,4.13576123046875,0.1903717652082443,-0.06836275760829448,-0.05397665098980069
1711649890597835000,4.1458349609375,-0.009710077631473541,-0.09449980003610253,0.03836133136991411
1711649890607909000,4.1559091796875,-0.22147826661169528,0.027226152838766574,-0.0012669534791843033
1711649890617983000,4.16598291015625,-0.30998364853858945,0.07954422296658158,-0.029650895767658947
1711649890628057000,4.17605712890625,-0.3507055350273847,0.02322115498110652,-0.03249711551163345
1711649890638131200,4.186131103515625,-0.3438438325643539,-0.08420140112265943,-0.054116790112853044
1711649890648205000,4.196205078125,-0.2723269948393106,-0.15238558729365467,-0.020692330623231826
1711649890658279200,4.206279052734375,-0.06057867960333824,-0.18572890783846377,-0.003595686404407024
1711649890668354000,4.21635400390625,0.24989655184447765,-0.21166633604094384,-0.06352079746983945
1711649890678428200,4.22642822265625,0.4181675444036722,-0.24906083167269824,-0.010842625325359404
1711649890688502000,4.236501953125,0.4409142137408256,-0.3249698399420827,0.08126205973513424
1711649890698576000,4.246575927734375,0.2658148364663124,-0.2917432045795023,0.2600502450576052
1711649890708650200,4.256650146484375,0.10340718298256396,-0.2607161250878125,0.37602822886500503
1711649890718724000,4.26672412109375,0.005914192479848862,-0.22740356500744818,0.46325851282216607
1711649890728798200,4.276798095703125,-0.10367080235481262,-0.18661036684811114,0.518248286377266
1711649890738872000,4.2868720703125,-0.14919921234250066,-0.09791180043667554,0.5068023248638958
1711649890748946200,4.2969462890625,-0.09780512519180774,-0.042628377697244285,0.36108244253713634
1711649890759020000,4.30702001953125,0.025706688186526296,-0.005779094858095049,0.11613854466397315
1711649890769094000,4.317093994140625,0.04456687147915363,-0.018465265690907836,-0.045351930042775344
1711649890779168300,4.327168212890625,-0.07558218746781349,-0.08856003472357987,-0.07568122739549726
1711649890789243000,4.337242919921875,-0.08806757503151894,-0.11991641923487185,-0.06831347510647029
1711649890799317200,4.347317138671875,-0.057495326635241505,-0.0887830298244953,-0.012792955675534904
1711649890809391000,4.35739111328125,-0.05622282248139381,-0.06856098359413444,0.04909598454246297
1711649890819465200,4.36746533203125,-0.0691641371190548,-0.034185324326902626,0.10865052699614315
1711649890829539000,4.3775390625,-0.015438976672291755,-0.02214892263971269,0.16159155132789163
1711649890839613200,4.38761328125,0.04951601831912994,-0.040755204236507414,0.19302629830501972
1711649890849687000,4.39768701171875,0.0050660512179136275,-0.05904672079570591,0.17952424451205878
1711649890859761200,4.40776123046875,-0.04113222085535526,-0.0824964969009161,0.09968958723153919
1711649890869835300,4.417835205078125,0.03275017695724964,-0.1637096759930253,0.006130209850706159
1711649890879909400,4.427909423828125,0.04630991575419902,-0.2228267586112022,-0.07834989861547946
1711649890889983200,4.437983154296875,0.011921908462047576,-0.2245676109291613,-0.12274424480563029
1711649890900058400,4.448058349609375,0.028642157116532323,-0.24795009395182133,-0.1601185378995724
1711649890910132200,4.45813232421875,0.06358662924766541,-0.24434892765469848,-0.2057417865638621
1711649890920206300,4.468206298828125,0.1028828668475151,-0.2356660741791129,-0.21041708489852026
1711649890930280200,4.4782802734375,0.10620587379038333,-0.22596154950559139,-0.23795681546479464
1711649890940354300,4.488354248046875,0.09022855245769024,-0.22874745389707385,-0.229599376284983
1711649890950428200,4.49842822265625,0.05728606779873371,-0.21872429172843694,-0.174473043803405
1711649890960502300,4.508502197265625,0.04134089516997337,-0.1996340260069817,-0.13323476875768975
1711649890970576400,4.518576416015625,0.06253799697756766,-0.15447006541751324,-0.0962277563398704
1711649890980650200,4.528650146484375,0.04190671235918998,-0.11650938727036118,-0.0579570623954758
1711649890990724400,4.538724365234375,0.011608604729175567,-0.11610913590639829,-0.000657057402934879
1711649891000798200,4.548798095703125,0.00037000235617160797,-0.13277064011096953,-0.002326908577606082
1711649891010872300,4.558872314453125,-0.015526654955744743,-0.16687193941622971,0.021799981337878853
1711649891020947200,4.568947265625,0.007862988460063934,-0.19023191834613679,0.05976184679511934
1711649891031021300,4.579021240234375,0.036194179931282995,-0.19516309113800526,0.08744719637716189
1711649891041095200,4.58909521484375,0.0816512782484293,-0.18748671129122374,0.08900613452326506
1711649891051169300,4.599169189453125,0.12777999221682548,-0.16425488878563047,0.07509500673906877
1711649891061243400,4.609243408203125,0.1580038655668497,-0.11857289567142724,0.054004726306814695
1711649891071317200,4.619317138671875,0.11257131716907023,-0.055577218054234975,0.03755182335162535
1711649891081391400,4.629391357421875,0.0701613314628601,-0.028845497668907046,0.009151676563732326
1711649891091465200,4.63946533203125,0.020500936236977577,-0.009040507806837558,-0.014507011318113654
1711649891101539000,4.6495390625,-0.007353285372257232,-0.015162059427052735,-0.03657039283253252
1711649891111613200,4.65961328125,-0.051098903596401214,-0.02518660983517766,-0.01913853444312699
1711649891121687300,4.669687255859375,-0.06063946987986564,-0.020704934376478194,-0.008035860808938741
1711649891131761400,4.679761474609375,-0.06503975066542625,-0.02555310506001115,0.003229994897171855
1711649891141836300,4.689836181640625,-0.05165244582593441,-0.022822657182812688,-0.00410643067182973
1711649891151910400,4.699910400390625,-0.03937105640172958,-0.01222849019318819,-0.0141994797389023
1711649891161984300,4.709984375,0.0026730186015367506,-0.015486688271537423,-0.0005033098796382547
1711649891172058400,4.720058349609375,0.0038940848290920254,0.007188377134129405,-0.0007576408337336033
1711649891182132200,4.73013232421875,0.008928571864962577,0.027567294426634907,-0.04506745054558851
1711649891192206000,4.7402060546875,0.007615151178836822,0.016121698239445686,-0.07088040298502891
1711649891202280200,4.7502802734375,-0.02910334488749504,0.01945822225101292,-0.08324715087143704
1711649891212354300,4.760354248046875,-0.07966565738916397,-0.008977379442751407,-0.06367733973842114
1711649891222428400,4.770428466796875,-0.10697335103154182,-0.02874379086010158,-0.042524752925988285
1711649891232502300,4.780502197265625,-0.09563596445918082,-0.049810471221059555,-0.012333083078823984
1711649891242576400,4.790576416015625,-0.06827449480295181,-0.07437967981025576,-0.005324099365901201
1711649891252650200,4.800650146484375,-0.0608633417636156,-0.07858480334989726,0.05710905813085846
1711649891262725400,4.810725341796875,-0.054223173096776,-0.08938749852366745,0.055709667061176145
1711649891272799200,4.82079931640625,-0.005230886390805244,-0.08722929757647216,0.025809746702201663
1711649891282873000,4.830873046875,0.07266366967260837,-0.09543035888448358,-0.01920804688222706
1711649891292947200,4.840947265625,0.0860386995524168,-0.11345920591950416,-0.07297048886576667
1711649891303021300,4.851021240234375,0.10156944616138934,-0.11630151667334139,-0.08474664131472819
1711649891313095400,4.861095458984375,0.12685001789033412,-0.11229461911953985,-0.08145416650744154
1711649891323169300,4.871169189453125,0.1018459250152111,-0.13365027248971165,-0.06376805022917688
1711649891333243400,4.881243408203125,0.06768646578192711,-0.1273676850888878,-0.06443372932998463
1711649891343317200,4.891317138671875,0.07257248425781726,-0.09815401169471442,-0.04317040301891975
1711649891353391000,4.90139111328125,0.05059972190260887,-0.06746763539947569,-0.04099195386813953
1711649891363465200,4.91146533203125,0.01154138471186161,-0.030208894976601,-0.05126569326436147
1711649891373539300,4.921539306640625,0.028066987577080725,-0.024442513469606637,-0.08363545606927945
1711649891383614200,4.9316142578125,0.0264560452491045,0.00149849492944777,-0.11382255933918058
1711649891393688300,4.941688232421875,0.000983165818452835,0.033034912182763214,-0.15375040937345474
1711649891403762400,4.951762451171875,0.014309680381417274,0.05206175727918744,-0.20370322994096204
1711649891413836300,4.961836181640625,0.0029576807618141173,0.05494944154471159,-0.14594539817832408
1711649891423910100,4.97191015625,0.018673136287927626,0.029847952709719537,-0.0950970352768898
1711649891433984300,4.981984375,-0.007872925332188606,0.03665383333228528,-0.052230063050799067
1711649891444058000,4.99205810546875,-0.007504676541686057,0.02099580708183348,-0.0257978370686993
1711649891454132200,5.00213232421875,-0.0026157354563474656,0.01746083788871765,-0.01856176660163328
1711649891464206300,5.012206298828125,-0.03858662802577018,0.05087327814698219,-0.0015453480121679602
1711649891474280400,5.022280517578125,0.01630582263469696,0.06558576717562974,-0.0025706359392963347
1711649891484354300,5.032354248046875,0.03639233285188675,0.06939706909209489,-0.015065101858600972
1711649891494428200,5.04242822265625,-0.005116320100426674,0.07894428431205451,-0.061204565549874676
1711649891504502300,5.052502197265625,0.04171674274504184,0.07608144222684204,-0.09784440688942558
1711649891514577200,5.0625771484375,0.015052023181319235,0.054898880401253694,-0.09748254217393695
1711649891524651300,5.0726513671875,-0.05097615399956703,0.06421170234344899,-0.03747505918783135
1711649891534725000,5.08272509765625,-0.014983049598336219,0.03355141033753752,0.0227059354679659
1711649891544799200,5.09279931640625,-0.014317863687872886,0.021781623697280882,0.031665085134282706
1711649891554873300,5.102873291015625,-0.0321896204650402,0.0275780350163579,0.029195882009156047
1711649891564947500,5.112947509765625,0.016110007801651952,0.016461889979243277,0.02158442062474787
1711649891575021300,5.123021240234375,0.05006079272031784,0.00907258344553411,0.008226606741221621
1711649891585095200,5.13309521484375,0.15581600013375282,0.01630757620036602,-0.011378093042084947
1711649891595169300,5.143169189453125,0.16884733114242553,0.030527751667425034,-0.03335045353849418
1711649891605243100,5.1532431640625,0.14508359371721744,0.03847615338861942,-0.024619294808618724
1711649891615317200,5.163317138671875,0.1104296289652586,0.042993557747825976,-0.022539940384449435
1711649891625391400,5.173391357421875,-0.028251111972332,0.07835705900862812,-0.030595885000191628
1711649891635466200,5.18346630859375,-0.09954407781362533,0.09238273481689394,-0.017564197798492387
1711649891645540400,5.193540283203125,-0.10231880322396755,0.06860007349550723,0.014101261795125901
1711649891655614200,5.2036142578125,-0.12273323022127151,0.06052015434913337,0.01690199842955917
1711649891665688300,5.213688232421875,-0.08747545435726642,0.0648436435714364,0.05491500955214724
1711649891675762200,5.22376220703125,-0.03835866448879242,0.06371529712863266,0.045962527088634665
1711649891685836300,5.233836181640625,0.016316928550601004,0.07528649245686829,0.05487469580806791
1711649891695910100,5.24391015625,0.05761924527585506,0.057626844060420984,0.03031054698647931
1711649891705984300,5.253984375,0.05181728099882602,0.038638212082535026,0.006213211959041655
1711649891716058400,5.264058349609375,0.02733867330253124,0.0019381284557282925,0.016872133014257995
1711649891726132200,5.27413232421875,-0.020704349854588508,-0.003444733626395464,0.07526780602270737
1711649891736206300,5.284206298828125,-0.030423779836297033,-0.01268310209289193,0.13895354826329276
1711649891746280200,5.2942802734375,-0.009702478846907616,0.015606953650340438,0.1830205621952191
1711649891756354300,5.304354248046875,-0.0015957447588443754,-0.030684403533861038,0.2111315898434259
1711649891766429200,5.31442919921875,0.042377252480387685,-0.05730404184684157,0.22947266289908438
1711649891776503300,5.32450341796875,0.08804653224349021,-0.08460764383599162,0.21938209805004297
1711649891786577200,5.3345771484375,0.12944178794920444,-0.10959442025013268,0.1744538824452087
1711649891796651300,5.3446513671875,0.16898644735217094,-0.08581110134162008,0.13779467881806193
1711649891806725400,5.354725341796875,0.21913901000916958,-0.07125636015795171,0.14303720084773375
1711649891816799200,5.36479931640625,0.2160357832968235,-0.04712086681090295,0.1618798119510524
1711649891826873300,5.374873291015625,0.1383937406897545,-0.012861673530191183,0.18785276812463997
1711649891836947200,5.384947265625,0.051370121753215786,0.03016337533444166,0.2131615613010712
1711649891847021300,5.395021240234375,-0.05874678800106048,0.05179200042709708,0.2041968038778752
1711649891857095200,5.40509521484375,-0.11507190181314944,0.05317081449963152,0.17802379508754237
1711649891867169300,5.415169189453125,-0.13421265561282633,0.06337853945493697,0.16219039400387555
1711649891877243400,5.425243408203125,-0.1499164207011461,0.042294834893941875,0.14836601292137055
1711649891887317500,5.4353173828125,-0.0852542711764574,0.008378975158184766,0.1264933134071529
1711649891897391600,5.4453916015625,-0.03915186069309711,-0.03673588559255004,0.10536503905206918
1711649891907465500,5.455465576171875,0.023376783934235573,-0.05690210998244583,0.08685158683788032
1711649891917539300,5.465539306640625,0.12992927920520306,-0.09626403322964906,0.0963628174290061
1711649891927613400,5.475613525390625,0.15177110865712165,-0.10932583244182169,0.019504061553580684
1711649891937687300,5.485687255859375,0.17302023291289806,-0.11557546742111444,-0.06517930526658892
1711649891947761400,5.495761474609375,0.1275742405116558,-0.1030698407869786,-0.13784542262461036
1711649891957836300,5.505836181640625,0.04936345810592174,-0.07590053270198405,-0.22550098278913647
1711649891967910700,5.51591064453125,-0.002985153290629387,-0.04890731183625757,-0.2711409633925184
1711649891977984500,5.525984619140625,-0.010164835661649703,-0.009329407750815153,-0.2797581312207505
1711649891988058600,5.53605859375,-0.0706973380357027,0.04154547783136368,-0.290089592153579
1711649891998132500,5.546132568359375,-0.08574059338867664,0.06979176749810576,-0.3002985592179
1711649892008206300,5.556206298828125,-0.0896902077972889,0.06416815546266734,-0.3457589089380577
1711649892018280400,5.566280517578125,-0.12858370981514453,0.058458545644208784,-0.34912513396814465
1711649892028354300,5.576354248046875,-0.11456336776912211,0.039709494575858116,-0.2900332223238423
1711649892038428700,5.5864287109375,-0.07484159823358058,0.02988835778534412,-0.22318620304074138
1711649892048502500,5.59650244140625,-0.035565818899869914,0.000527677135914564,-0.170897468605265
1711649892058576400,5.606576416015625,0.010099369210004806,-0.03706409463360905,-0.1505676876841113
1711649892068650500,5.616650390625,0.024928105029463767,-0.054850949606299396,-0.13988438110630957
1711649892078724400,5.626724365234375,0.015283493849635123,-0.05377301817648113,-0.08730207055173814
1711649892088799500,5.636799560546875,0.023692425754666326,-0.059050300992280244,-0.0394130689125508
1711649892098873300,5.646873291015625,0.043479076242446894,-0.07070866314731537,0.04471669174600392
1711649892108947500,5.656947509765625,0.02315641918182373,-0.048474108050763604,0.1264825728174299
1711649892119021300,5.667021240234375,0.057011342510581015,-0.04668612865544855,0.17188847067030147
1711649892129095700,5.677095703125,0.09266074804067612,-0.029266134233772754,0.25706905555604026
1711649892139169500,5.68716943359375,0.09258592923879623,-0.00016081658490002155,0.2767234944988973
1711649892149243400,5.697243408203125,0.10481646525859832,0.03454809322468936,0.25684154867678877
1711649892159317500,5.7073173828125,0.0958545756459236,0.04414513893574476,0.21816537920404225
1711649892169391400,5.717391357421875,0.039375732576847074,0.04073452677465975,0.16802447045221924
1711649892179465500,5.727465576171875,-0.007501753932237625,0.03293547039628029,0.10427797446772455
1711649892189539300,5.737539306640625,-0.018446341794729232,-0.0019493074368685482,0.006915843803063035
1711649892199613700,5.74761376953125,-0.040938744109869,-0.006544818533584475,-0.054816024423390626
1711649892209687600,5.7576875,-0.026262568503618237,-0.019926497349888085,-0.05541380765344947
1711649892219762700,5.7677626953125,-0.009105681997537612,-0.009091361211240292,-0.06729699154030531
1711649892229836500,5.77783642578125,0.049424248382449146,-0.01592434903644025,-0.07272818627618252
1711649892239910400,5.787910400390625,0.0625806670755148,-0.02169621043615043,-0.07859707830958068
1711649892249984500,5.797984619140625,0.04590250399708748,-0.014709201093018055,-0.10897493664491921
1711649892260058400,5.808058349609375,0.06300853709876537,0.004301423520967364,-0.10894012105986475
1711649892270132500,5.818132568359375,0.06170096163153648,0.0311256444953382,-0.10685049183685331
1711649892280206300,5.828206298828125,0.02046469587981701,0.052387993558868765,-0.11241700339019298
1711649892290280700,5.83828076171875,-0.010532499930262566,0.05892272908985614,-0.09932097311485558
1711649892300354600,5.8483544921875,-0.048479076486825944,0.05294526211544871,-0.06323251858036964
1711649892310428400,5.858428466796875,-0.08523790456354617,0.06251710032001137,-0.022956037771515548
1711649892320502500,5.86850244140625,-0.08007657627761364,0.05936068211570382,0.01951802614685148
1711649892330576400,5.878576416015625,-0.0716121147930622,0.03647511576451361,0.02629950298052281
1711649892340650500,5.888650390625,-0.04416705850660801,-0.009185834561660885,0.04075220856182277
1711649892350725400,5.898725341796875,-0.0233972422003746,-0.03627630525678396,0.03265924727078527
1711649892360799500,5.908799560546875,0.03277648044228554,-0.08647336464263498,0.003959880074299872
1711649892370873300,5.918873291015625,0.0941600466877222,-0.11124635217562318,-0.004681801140680909
1711649892380947500,5.928947509765625,0.13371405844092368,-0.12156184835433959,0.0009332987947389483
1711649892391021600,5.939021484375,0.16055004291832445,-0.1317125093601644,0.001995740394480526
1711649892401095400,5.949095458984375,0.15224340234398842,-0.10305004010796547,0.019683117048069833
1711649892411169500,5.95916943359375,0.06557166558504104,-0.06398658835068345,0.002899155507609248
1711649892421243400,5.969243408203125,0.002587678405642509,-0.02769800813421607,-0.022525975791178644
1711649892431317500,5.9793173828125,-0.03526011395156383,0.0034781975045800207,-0.06884761851578951
1711649892441391400,5.989391357421875,-0.07402502115368842,0.03713562549985945,-0.09881485022362321
1711649892451465500,5.999465576171875,-0.09939327116608619,0.029838088902831076,-0.12739095636662096
1711649892461539600,6.00953955078125,-0.14673369901180267,0.009989771355688572,-0.13592559701055287
1711649892471613400,6.019613525390625,-0.10440203923881053,0.01038030504323542,-0.10498499022591859
1711649892481687600,6.0296875,-0.026671733826398848,-0.010538052888214588,-0.05179675880060531
1711649892491762400,6.039762451171875,0.03489244968295097,-0.020920842149481176,-0.02483571403827518
1711649892501836500,6.04983642578125,0.08132686859965324,-0.014581702255830168,-0.002198459892347455
1711649892511910400,6.059910400390625,0.10966799694299698,0.00014539982005953788,0.0251586897817906
1711649892521984500,6.069984619140625,0.09959200860857963,-0.0018872750513255596,0.027405345330573618
1711649892532058400,6.080058349609375,0.04611351639926433,0.02745937707275152,-0.015832907893322406
1711649892542132500,6.090132568359375,0.027696985220909118,0.029968656479939817,-0.022874104242259635
1711649892552206600,6.10020654296875,0.013947861331701278,0.029255905100703236,-0.021006620736792683
1711649892562280400,6.110280517578125,0.001312251642346382,0.057051820651441806,-0.013532339333370327
1711649892572354600,6.1203544921875,-0.00796118813753128,0.06414199810810386,0.018165616024052724
1711649892582428400,6.130428466796875,-0.01641571274995804,0.07080079841017722,0.01505414207316935
1711649892592502300,6.140502197265625,-0.019855624070763588,0.09366897523514926,0.03396959921699017
1711649892602576400,6.150576416015625,-0.019309680625796317,0.10056531062014401,0.03679549769214354
1711649892612651300,6.1606513671875,-0.02420212884247303,0.11142506974339485,0.051746553850173946
1711649892622725400,6.170725341796875,0.009680267015099525,0.09014927667640149,0.0759670951321721
1711649892632799500,6.180799560546875,-0.007024784070253372,0.09502696571536362,0.049247686239145695
1711649892642873600,6.19087353515625,-0.001502221256494522,0.07655424737036227,0.02584148441418074
1711649892652947500,6.200947509765625,0.006774608701467514,0.03625548166446388,-0.03377900854833424
1711649892663021600,6.211021484375,-0.012370236751437187,-0.0168164755705744,-0.08562668468542396
1711649892673095400,6.221095458984375,-0.023117256215214727,-0.025008769050240517,-0.13652900626379996
1711649892683169300,6.231169189453125,0.02609948689639568,-0.0406092929597944,-0.1788688858758658
1711649892693243400,6.241243408203125,0.04085632652342319,-0.049026846562698484,-0.174164945968613
1711649892703317500,6.2513173828125,0.0322597630918026,-0.0126032417897135,-0.11877437306027859
1711649892713391600,6.2613916015625,0.014613047242164612,0.016299831285327672,-0.05229747486435808
1711649892723465500,6.271465576171875,-0.019569208344817162,0.050992520612478255,-0.02084610554599203
1711649892733539300,6.281539306640625,0.009155366358160971,0.06584843669980764,0.012760953102074563
1711649892743613400,6.291613525390625,-0.0010258359163999556,0.08097783596627414,0.03986950744315981
1711649892753688600,6.3016884765625,-0.02308569203317165,0.09646993106529116,0.0005916822828352451
1711649892763762400,6.311762451171875,0.009608370822668076,0.0668121671654284,-0.020320611234009266
1711649892773836300,6.321836181640625,0.02028817026913166,0.0217128693100065,-0.051945437423139805
1711649892783910400,6.331910400390625,0.015531915652751922,0.006627966772392392,-0.053274822863377626
1711649892793984500,6.341984619140625,0.03183306211233139,0.0069976038023829455,-0.04802574322875589
1711649892804058600,6.35205859375,0.030606735187768935,0.019511925199627876,-0.007205985856056213
1711649892814132500,6.362132568359375,0.026170798566937443,0.007789484832435846,-0.011134630541875959
1711649892824206300,6.372206298828125,-0.009946224474906921,0.006458528489619493,-0.04016019748542458
1711649892834280400,6.382280517578125,-0.03501578380167484,-0.028105127630382774,-0.03426215242277831
1711649892844354300,6.392354248046875,-0.0145873282790184,-0.04265095485523343,-0.03472637240104377
1711649892854428400,6.402428466796875,0.03793430159687996,-0.08397482582516967,-0.03075717650912702
1711649892864502800,6.412502685546875,0.056848260903358455,-0.1129571746814996,-0.032928565731458366
1711649892874576600,6.42257666015625,0.09317337373793125,-0.12110372932329773,-0.018981909976154565
1711649892884650800,6.432650634765625,0.10629121398627757,-0.15027429422810673,-0.0096522556301672
1711649892894725600,6.4427255859375,0.11583119574785232,-0.14743753643222152,0.02336647260277532
1711649892904799700,6.4527998046875,0.10257423928976059,-0.10703845215700566,0.043486638494394714
1711649892914873600,6.46287353515625,0.06892974384129047,-0.08014971457906067,0.05713642106181942
1711649892924947700,6.47294775390625,0.024591420421004293,-0.05020180862620473,0.03789112004227936
1711649892935021600,6.483021484375,0.006383563557267189,-0.020792685725167393,0.008693402269063517
1711649892945095400,6.493095458984375,-0.04705927281677723,0.0018231968391686677,-0.025328465991280972
1711649892955169800,6.503169677734375,-0.04992518364191055,0.024524200403690338,-0.020415376845374703
1711649892965243600,6.51324365234375,-0.030312136155366896,0.029995033030211924,-0.00617065145894885
1711649892975317800,6.52331787109375,-0.0047772974044084544,0.016225523940101266,0.027746194657497107
1711649892985391600,6.5333916015625,0.016915478965640066,0.018319792805612085,0.032724923784984275
1711649892995465500,6.543465576171875,0.0032446810096502304,0.03937763227298856,0.02158347077667713
1711649893005539600,6.55353955078125,-0.018024316990375516,0.04044774572253227,0.011359196545369923
1711649893015613400,6.563613525390625,0.004514847075939178,0.025787206076830625,-0.015600852703116834
1711649893025688600,6.5736884765625,-0.0024631752431392667,0.04680756307803094,-0.04891096509806812
1711649893035762400,6.583762451171875,0.0018880057036876677,0.07617788833864032,-0.07933938457686454
1711649893045836800,6.5938369140625,0.023640987828373906,0.06224873170740902,-0.11073376301098614
1711649893055910700,6.60391064453125,0.008851999497413634,0.04580627708099782,-0.13778938158843665
1711649893065984800,6.61398486328125,-0.00046352585852146145,0.0459897438891232,-0.16547558968700468
1711649893076058600,6.62405859375,-0.013027239355444907,0.05117386852875352,-0.15863301204955205
1711649893086132500,6.634132568359375,-0.0389607220351696,0.05517996236495673,-0.05562724947473034
1711649893096206600,6.64420654296875,-0.05864040501713753,0.04926657360270619,0.04537519218735397
1711649893106280400,6.654280517578125,-0.06759177323579788,0.04059679880440235,0.06742118417555466
1711649893116354800,6.664354736328125,-0.0311702142894268,0.04833616088479757,0.07859265786278992
1711649893126428700,6.6744287109375,0.018207856863737104,0.029672084686160085,0.08179220282277092
1711649893136502800,6.684502685546875,0.055820086899399754,-0.003663490943610668,0.08573047385346144
1711649893146576600,6.69457666015625,0.056523266732692715,-0.016660700486972928,0.0910674144346267
1711649893156650500,6.704650390625,0.0628150603532791,-0.05833879172205925,0.11696253786534071
1711649893166724600,6.714724609375,0.0791547852575779,-0.09955730262137949,0.12005904257595539
1711649893176799500,6.724799560546875,0.045326165413856506,-0.11017360837757587,0.1436772340506315
1711649893186873600,6.73487353515625,0.025443653336167334,-0.11474106242358684,0.14616897780112922
1711649893196947500,6.744947509765625,0.0273795898348093,-0.1204594400703907,0.17605189222637563
1711649893207021800,6.755021728515625,0.004794833061099052,-0.09094349579401313,0.17213773272363467
1711649893217095700,6.765095703125,-0.023608839124441144,-0.04964424780867994,0.14647760535888374
1711649893227169500,6.77516943359375,0.010671031618118285,-0.04913783265650272,0.11257478776779026
1711649893237243600,6.78524365234375,0.015810148072242736,-0.06079312607161701,0.06393737891409546
1711649893247317500,6.7953173828125,0.006055646777153015,-0.03905351488515735,0.031312545369565487
1711649893257391600,6.8053916015625,0.03422726377248764,-0.05204575599245727,0.017699706412199884
1711649893267465500,6.815465576171875,0.04541384369730949,-0.06646379211917519,-0.003347739525325596
1711649893277539800,6.825539794921875,0.06237374632656574,-0.0639154228106141,0.006309731136076152
1711649893287613700,6.83561376953125,0.03991699984669685,-0.058518751398846505,0.011069036226067691
1711649893297687600,6.8456875,0.006423895567655563,-0.04003039709329605,0.037219431325793265
1711649893307761700,6.85576171875,-0.02823182274997234,-0.02037964794486761,0.0035555735897272824
1711649893317836500,6.86583642578125,-0.018016133683919907,-0.01999371736720204,-0.015703399762138723
1711649893327910700,6.87591064453125,-0.01874620152413845,-0.015113982501626013,-0.03446494498588144
1711649893337984500,6.885984619140625,0.004439443752169609,0.017076807007193565,-0.05645491420421749
1711649893348058600,6.89605859375,0.0035486323922872542,0.035212694613263006,-0.09250226954333483
1711649893358132500,6.906132568359375,0.05244213489890098,0.038099282900243996,-0.06733429134339093
1711649893368206800,6.916206787109375,0.05249181925952434,0.038550241538137194,-0.02803825467294082
1711649893378280700,6.92628076171875,0.01808043109178543,0.04883030107729137,-0.019263338999729603
1711649893388354600,6.9363544921875,-0.004612462231516838,0.07941906221695244,-0.000940769715141505
1711649893398428700,6.9464287109375,-0.04195698124170303,0.08908011307492851,0.024850509748607873
1711649893408502500,6.95650244140625,-0.03749941731095314,0.08481697573773563,-0.020502580204792318
1711649893418576600,6.96657666015625,-0.06891396175026893,0.07638641652278602,-0.04237243017479777
1711649893428650500,6.976650390625,-0.061005380582809444,0.04388758397810161,-0.07048409714382141
1711649893438724600,6.986724609375,-0.0309480959713459,0.016600202471390366,-0.05056176451239735
1711649893448798700,6.996798828125,0.0024368717581033706,-0.04289557726606726,-0.04918857646305114
1711649893458873600,7.00687353515625,0.0465723660826683,-0.059799073532968754,-0.053436443165875966
1711649893468947700,7.01694775390625,0.1085989064067602,-0.057438554946705696,-0.06071456267638132
1711649893479021600,7.027021484375,0.13496084363162517,-0.04956292620077729,-0.0355653622421436
1711649893489095700,7.037095703125,0.1041764137893915,-0.030330767790600656,-0.033608437754400075
1711649893499169500,7.04716943359375,0.06139350311756134,-0.006597717764601111,-0.046593719397950914
1711649893509243600,7.05724365234375,-0.0000023380875587463378,0.012494082326814532,-0.048024628983903674
1711649893519317500,7.0673173828125,-0.05378010550439358,0.03949716699942946,-0.07781254033576697
1711649893529391600,7.0773916015625,-0.09240297388732432,0.057789925667643544,-0.07349754494717345
1711649893539465700,7.0874658203125,-0.1182715746372938,0.07068535533696413,-0.06822775131808594
1711649893549539600,7.09753955078125,-0.11287117689847946,0.06440766330696641,-0.07094904777444899
1711649893559613700,7.10761376953125,-0.04398410315513611,0.04226918899603188,-0.07855711162537336
1711649893569687600,7.1176875,0.00019347674548625944,0.033451457094401116,-0.04624499729182571
1711649893579761700,7.12776171875,0.045638884624838824,0.019351327810436487,-0.07589039490045979
1711649893589835500,7.13783544921875,0.06015840836465358,0.008726181160658597,-0.09471716911382973
1711649893599910700,7.14791064453125,0.07580722839534282,0.0033123394183814524,-0.08233977196924389
1711649893609984500,7.157984619140625,0.08559680100381374,0.013433774329721928,-0.06721515847574919
1711649893620058600,7.16805859375,0.03883563435077667,0.039831586585566396,-0.05280625550355762
1711649893630132700,7.1781328125,0.0137029466599226,0.030610096188634632,-0.033458069498278196
1711649893640206600,7.18820654296875,-0.0063923313856124875,0.021358649044856428,-0.0073855802066624164
1711649893650280700,7.19828076171875,-0.030952187624573704,-0.016999723182991144,0.030263127648178487
1711649893660354600,7.2083544921875,-0.028747955578565597,-0.028504063820093867,0.04660060579646379
1711649893670428400,7.218428466796875,0.016942951494455336,-0.03975939813219011,0.06226889771260321
1711649893680502500,7.22850244140625,0.04625087904334068,-0.05847732340991497,0.060099700447358184
1711649893690576600,7.23857666015625,0.07576105116605758,-0.0693228348121047,0.029390235537476835
1711649893700650800,7.248650634765625,0.09839607682228088,-0.06949899509660899,0.031278533502109344
1711649893710724600,7.258724609375,0.10876374157965182,-0.06968443466611206,0.048503206281084565
1711649893720798700,7.268798828125,0.10137713845968246,-0.07317768360935151,0.07108655654899776
1711649893730872600,7.27887255859375,0.05680500628352165,-0.043080432313680646,0.09165069421529769
1711649893740946400,7.288946533203125,0.051851767790317534,-0.04325125883594155,0.12190730079114437
1711649893751020500,7.2990205078125,0.008309563183784485,-0.019554010775685308,0.12142788324374705
1711649893761095400,7.309095458984375,-0.007483049231767654,0.001920958125218749,0.1259190206505358
1711649893771169500,7.31916943359375,0.015886135917901993,0.045671690915897484,0.0943463995726779
1711649893781243600,7.32924365234375,0.015546528699994086,0.04759995556473732,0.0673387848554179
1711649893791317800,7.33931787109375,0.019058336213231084,0.05630180600173771,0.00244348416198045
1711649893801391600,7.3493916015625,0.029220249265432357,0.059094359329715365,-0.0558706663091667
1711649893811465700,7.3594658203125,0.0013876549661159514,0.06306852365769446,-0.055709246936067935
1711649893821539600,7.36953955078125,-0.02555237440764904,0.08445873688459396,-0.03213485807050019
1711649893831613400,7.379613525390625,-0.05113339038789272,0.06110628367401659,-0.018337967783119528
1711649893841687600,7.3896875,-0.05408288784325122,0.06797974964007734,-0.003999664095416665
1711649893851761700,7.39976171875,-0.05110241072773933,0.08737484352700411,0.048362099043652414
1711649893861835800,7.409835693359375,-0.06727496237158775,0.08486687929406761,0.048058951378613705
1711649893871910000,7.419909912109375,-0.04257832801043987,0.05910758413746953,0.01923139122519642
1711649893881983700,7.429983642578125,-0.05442424862682819,0.038688773225992915,-0.015258249810524285
1711649893892057900,7.440057861328125,-0.03675239833593368,0.04880129417851567,-0.038365934479795395
1711649893902132700,7.4501328125,-0.005211597168445587,0.009437252039462328,-0.07295165630113333
1711649893912206800,7.460206787109375,0.006817278799414635,-0.02083944747634232,-0.10805383974462747
1711649893922280700,7.47028076171875,0.02065291192829609,-0.03565386250950396,-0.10232996393879874
1711649893932354800,7.480354736328125,0.03222995247542858,-0.06271532630585133,-0.04088825603164732
1711649893942429000,7.490428955078125,0.027501754909753796,-0.06519479509666562,0.05013970317542553
1711649893952502800,7.500502685546875,0.03377425930798054,-0.09187288559861481,0.10145162846799939
1711649893962577000,7.510576904296875,0.0652332274109125,-0.10595613681301475,0.09750435214694589
1711649893972650800,7.520650634765625,0.10183014292418956,-0.11290106058008968,0.08863923743963241
1711649893982724900,7.530724853515625,0.1221364333719015,-0.10649565051719545,0.049248855282925066
1711649893992798700,7.540798828125,0.13713584958314895,-0.10008074197359383,0.00399098759861663
1711649894002872800,7.550872802734375,0.13194704876840113,-0.09044088003411889,-0.02938723986279219
1711649894012947000,7.560947021484375,0.09858604643642901,-0.08320311080031097,-0.06543176392400638
1711649894023020800,7.571020751953125,0.07387246094048022,-0.04017097460776567,-0.0735867393342778
1711649894033095000,7.581094970703125,0.03336918563842773,-0.013902049428597092,-0.03517813475653529
1711649894043168800,7.591168701171875,-0.012211246797442435,0.001951061002537608,0.01437001400021836
1711649894053243000,7.601242919921875,-0.07274667178094386,0.02551540339812636,0.024375329984910786
1711649894063317800,7.61131787109375,-0.08249298976957797,0.05586231860592961,0.008615304664708674
1711649894073391900,7.621391845703125,-0.07331482705771923,0.08886011364869772,-0.011281729128677398
1711649894083465700,7.6314658203125,-0.08641454712748527,0.08192563821040093,-0.019351126881036906
1711649894093539800,7.641539794921875,-0.07397650583684444,0.0734955904521048,-0.03611260259505361
1711649894103614000,7.651614013671875,-0.040730654317140576,0.05328245818056166,-0.029523689191415903
1711649894113687800,7.661687744140625,0.0008680150061845779,0.049498409597203134,-0.025696897444874047
1711649894123762000,7.671761962890625,0.0002659574598073959,0.07303031102791428,-0.02540920307729393
1711649894133835800,7.681835693359375,-0.02408873159587383,0.06812690302580594,-0.016817571549117564
1711649894143910000,7.691909912109375,-0.01335047996044159,0.10678038574270904,-0.01979448673436418
1711649894153983700,7.701983642578125,-0.04290215313732624,0.12218538708016276,-0.054162291488703336
1711649894164057900,7.712057861328125,-0.04164133942127227,0.1320851420648396,-0.04621496747974306
1711649894174132000,7.722132080078125,-0.05521861387491226,0.10196166034936904,-0.034156153031345456
1711649894184205800,7.732205810546875,-0.054770285585522646,0.07947853731922805,-0.012613799716345965
1711649894194280000,7.742280029296875,-0.001035188266634941,0.029230186137557027,0.009137118315417319
1711649894204353800,7.752353759765625,0.04787234276533127,0.01074694639854133,-0.0028071115762926635
1711649894214429000,7.762428955078125,0.09426701419353485,-0.027482904078811404,-0.011872826889622956
1711649894224502800,7.772502685546875,0.1606307069391012,-0.04248385466001928,-0.029930790421273556
1711649894234577000,7.782576904296875,0.15864567060172557,-0.05234612717851996,-0.029862236963398753
1711649894244650800,7.792650634765625,0.14381518121659756,-0.04835837271660566,-0.02611879438506439
1711649894254724900,7.802724853515625,0.10763678337633609,-0.03425210595279932,-0.02467624916024506
1711649894264799000,7.812799072265625,0.06653145052790642,-0.01659179996922612,-0.0014609941969625651
1711649894274872800,7.822872802734375,0.009705985978245735,0.012883739231526851,0.011018219354283064
1711649894284947000,7.832947021484375,-0.03776946642398834,0.009416793773323297,0.025650062628462908
1711649894295020800,7.843020751953125,-0.03499064936041832,0.013710326248779893,0.04118197828121483
1711649894305094700,7.8530947265625,-0.03656125967800617,0.007542232073098421,0.029197197183407842
1711649894315168800,7.863168701171875,-0.028143559944629668,0.003980740199238062,0.04128485413379967
1711649894325243000,7.873242919921875,0.007411153039336204,-0.018830153480544686,-0.002072605022974312
1711649894335317000,7.88331689453125,0.03979132764041424,-0.05581986770369112,-0.0018268501009792088
1711649894345390800,7.893390869140625,0.06846329537332058,-0.06046871642284095,-0.012432196071743964
1711649894355465000,7.90346484375,0.06452303331494331,-0.07124240469783544,-0.010560922307148574
1711649894365538800,7.913538818359375,0.05375555558502674,-0.07560418010391294,0.019227628365531563
1711649894375612700,7.92361279296875,0.023483751440048217,-0.0840634539566934,0.02636230255104601
1711649894385687800,7.933687744140625,0.008960720568895339,-0.07585223658084869,0.04608589773997664
1711649894395761700,7.94376171875,-0.033628713357448575,-0.06579166501127183,0.06000880729351192
1711649894405835800,7.953835693359375,-0.03514262505173683,-0.053733782144635915,0.058652899172529575
1711649894415910000,7.963909912109375,-0.011599836900830269,-0.06866846255660057,0.02634242880679667
1711649894425984000,7.97398388671875,-0.004924596920609474,-0.04554090414308011,0.012711670600250363
1711649894436057900,7.984057861328125,-0.006011223113536834,-0.022272622084617614,-0.030370844072662294
1711649894446132000,7.994132080078125,-0.005291092145442962,-0.02252279745340347,-0.04289481008108705
1711649894456205800,8.004205810546875,-0.006767594438791275,0.006308452494442463,-0.038047625778242944
1711649894466279700,8.01427978515625,-0.04140986875295639,0.006293547186255455,-0.03694339086338878
1711649894476353800,8.024353759765624,-0.029780221235752104,-0.01677716647349298,-0.04740319088362157
1711649894486428000,8.034427978515625,-0.022767127603292463,-0.024028014384582637,-0.038009412659704686
1711649894496502000,8.044501953125,-0.028171032473444938,-0.044709348689764734,-0.05748199222963303
1711649894506576000,8.054575927734374,-0.00637830286026001,-0.04866992288380861,-0.07632924297545104
1711649894516649700,8.064649658203125,0.006679916155338287,-0.07384520760737359,-0.08740381389316171
1711649894526723800,8.074723876953126,0.015156068077683448,-0.09584295827336609,-0.1026067533198744
1711649894536797700,8.084797607421875,0.027236966493725773,-0.09670753921344875,-0.1016873003873974
1711649894546872800,8.094872802734375,0.06073182433843612,-0.11027962603531777,-0.0865835470188409
1711649894556946700,8.10494677734375,0.07140519404411315,-0.10487557503469287,-0.04997033795788884
1711649894567020800,8.115020751953125,0.06247486861348152,-0.06810118406265973,-0.02490450495816767
1711649894577095000,8.125094970703126,0.05720832638740539,-0.079387717230618,-0.030593693043105302
1711649894587169000,8.1351689453125,0.04482639919817447,-0.07486556363105773,-0.029564605723693967
1711649894597243000,8.145242919921875,0.017504677030444143,-0.029506518860906363,-0.016342172589711844
1711649894607316700,8.155316650390626,-0.00025952771902084347,-0.012863500161096452,-0.024793738060072065
1711649894617390800,8.165390869140625,-0.024207389539480206,-0.02429009938687086,-0.019267850778065622
1711649894627464700,8.175464599609375,-0.025965046861767767,-0.04165376051142811,-0.012140811909735202
1711649894637538800,8.185538818359374,-0.015395722052454947,-0.048125367678329346,0.04974774471577257
1711649894647613000,8.195613037109375,0.020396891340613364,-0.03347586088329554,0.08088774653002619
1711649894657687000,8.20568701171875,0.041381811702251435,-0.0341041488494724,0.08832856405526399
1711649894667761000,8.215760986328124,0.06125672499537468,-0.017373305735737084,0.07679324375800788
1711649894677834800,8.225834716796875,0.07895487877130508,0.007410130126029252,0.06427030066289008
1711649894687908900,8.235908935546876,0.07563011826276779,0.04464183641150594,0.04461874779686331
1711649894697982700,8.245982666015625,0.035381109982728955,0.0564664219789207,0.025850115245208142
1711649894708057900,8.256057861328125,0.026264906591176983,0.05379742196537554,-0.0031089623333886264
1711649894718131700,8.266131591796874,-0.020992519146203995,0.045610535313189024,0.03414382327273488
1711649894728205800,8.276205810546875,-0.02243921082317829,0.03318338074274361,0.04214406477902084
1711649894738280000,8.286280029296876,-0.017279051581025124,0.02146890448629856,0.052485462583974
1711649894748353800,8.296353759765625,-0.0005576338827610015,0.01658909655548632,0.07352434162255377
1711649894758428000,8.306427978515625,0.019177578678727148,0.005543313340842723,0.08593794259168207
1711649894768501800,8.316501708984376,0.031095980009436607,0.0025716771189123393,0.05130666459556669
1711649894778576000,8.326575927734375,0.015900748965144155,-0.002160977426171303,0.021734021695889533
1711649894788649700,8.336649658203125,0.01564706646502018,0.005926029048115015,0.009028963499516249
1711649894798723800,8.346723876953124,0.02074877351820469,0.004665215332061052,-0.008616510241106152
1711649894808798000,8.3567978515625,0.020014029502868652,0.001986497642099857,0.010712203878723084
1711649894818871800,8.366871826171876,-0.01796060410439968,0.021388824987411497,0.05273096177764237
1711649894828946000,8.37694580078125,-0.02951543281972408,0.03142331226766109,0.06556669714897871
1711649894839019800,8.387019775390625,-0.03841536311209202,-0.009854235342517495,0.0480845242112875
1711649894849094000,8.397093994140626,-0.024031448450684546,-0.02271722404696047,0.031222309802845117
1711649894859167700,8.407167724609375,0.0069669164031744,-0.016077493771538137,0.006871968128718435
1711649894869241000,8.417240966796875,0.07734042931199073,-0.025841420482099055,-0.010480477482080459
1711649894879315200,8.427315185546876,0.07709609916210174,-0.04875044077411294,-0.007553411054238676
1711649894889390000,8.43739013671875,0.062494742357730865,-0.037759529551863666,0.030103607971221205
1711649894899464200,8.447464111328125,0.04903671036958694,-0.02685498143881559,0.03131623516399413
1711649894909538000,8.4575380859375,0.031876316732168196,-0.03628594986796379,0.032930282764509315
1711649894919612200,8.467612060546875,0.0035679216146469114,-0.011323796438425779,0.04629190517347306
1711649894929686000,8.47768603515625,0.007059855383634567,0.006414031760767102,0.013689758384786546
1711649894939759900,8.487759765625,-0.014597265151143074,-0.009265402603894472,-0.011302644052542745
1711649894949834000,8.497833984375,-0.008006780844926833,0.006445376747101545,-0.02105663389097899
1711649894959908000,8.507908203125,-0.016259060883522032,0.031114392448961734,-0.02982986906375736
1711649894969982200,8.517982177734375,-0.009243629163503646,0.022674773144721983,-0.026881942510977384
1711649894980056000,8.52805615234375,0.0015787936240434645,0.020025719940662382,-0.019421068578399717
1711649894990130200,8.538130126953124,-0.016385317611694334,0.01569061334580183,0.023822006951086223
1711649895000204000,8.5482041015625,-0.001969254246354103,-0.004022825775295496,0.023854484448581934
1711649895010278000,8.55827783203125,0.01366319917142391,-0.0016970131762325763,0.003418758934922516
1711649895020352000,8.56835205078125,0.04077975415587425,-0.010276625473052263,-0.011772015129961073
1711649895030426000,8.578426025390625,0.032468437406420705,0.00177723880559206,-0.014375146833062171
1711649895040500200,8.588500244140626,0.0364729968726635,0.0007983838360756635,-0.01215666706599295
1711649895050574000,8.598573974609375,0.019778467181324956,-0.006994535062462091,-0.014180793304741382
1711649895060649200,8.608649169921875,0.0066822542428970335,0.0163236505523324,-0.011853044476918876
1711649895070723000,8.61872314453125,0.0037882863670587537,0.01717339924946427,-0.00906056421417743
1711649895080797200,8.628797119140625,-0.013121347379684447,0.024459902995824814,-0.0002617196761071682
1711649895090871000,8.63887109375,-0.0027361469656229016,0.020934213087707758,0.0006948503963649272
1711649895100945000,8.64894482421875,0.021194179198145865,0.033894597752019764,-0.010717354977875947
1711649895111019000,8.65901904296875,0.03690612759292126,0.04590279625803232,-0.05443575640153139
1711649895121093000,8.669093017578126,0.01795885053873062,0.059051470036059615,-0.05713168095462024
1711649895131167200,8.679167236328125,0.007692892590165138,0.055022872107103465,-0.03828950824271887
1711649895141241000,8.689240966796875,-0.0027361469656229016,0.046185777917876834,-0.024982794358767567
1711649895151315000,8.69931494140625,-0.006423895567655563,0.05228204896636307,-0.0351316287336871
1711649895161389000,8.70938916015625,-0.017740823873877525,0.06876352042891085,-0.01231240561697632
1711649895171463000,8.719462890625,-0.027088497933745383,0.0662194619692862,-0.002919832969456911
1711649895181537000,8.729537109375,-0.016198855128884315,0.04238660483062267,-0.018982092639245093
1711649895191611100,8.739611083984375,-0.010660510224103926,0.03443075045533478,-0.03677081077545881
1711649895201685200,8.749685302734376,0.029748657053709028,0.036195056714117525,-0.050812634000927205
1711649895211759000,8.759759033203125,0.057573652568459505,0.040796266899257895,-0.05885726263821125
1711649895221833000,8.7698330078125,0.044237201133370395,0.03873261236771941,-0.08480912122484296
1711649895231907000,8.779906982421876,0.035199908196926116,0.033235183995217084,-0.05475081370007246
1711649895241982000,8.78998193359375,-0.014126140508055687,0.021132146812602875,-0.030430721033737063
1711649895252056000,8.80005615234375,-0.027532734569907187,0.009951996628567576,0.0006692410310730338
1711649895262130000,8.8101298828125,-0.006656535279750824,-0.0007517682153731584,0.04444788474198431
1711649895272204300,8.820204345703125,0.004259995532035828,0.0012246464241296052,0.03636887891106307
1711649895282278100,8.830278076171876,0.04143909484744072,-0.004533405645936728,0.044117520276457066
1711649895292352300,8.840352294921875,0.02793254754245281,-0.01607669005393982,0.023426102968677878
1711649895302426000,8.850426025390625,0.03909223946034908,-0.0072572776518762105,-0.002993957651592791
1711649895312500000,8.8605,0.043753217008709905,0.0042266047190874815,-0.032328663609549405
1711649895322574000,8.870573974609375,0.018837971460819242,0.0008294365614652633,-0.05398428630698472
1711649895332648000,8.88064794921875,-0.006483516800403595,-0.025137729192152618,-0.032205146827735
1711649895342722300,8.890722412109374,-0.04416939659416675,-0.029047961438447234,0.030952406820282337
1711649895352796200,8.900796142578125,-0.0631423926115036,-0.01881707480326295,0.08096548794135451
1711649895362870000,8.9108701171875,-0.036655952224135396,-0.0011171674616634844,0.08422164019308984
1711649895372944100,8.920944091796875,-0.0014940379500389099,-0.00986000749617815,0.07129555965717882
1711649895383018000,8.93101806640625,0.06087269411385059,-0.006204334532842039,0.05232621690165251
1711649895393092000,8.941092041015626,0.09287176044285297,-0.012976093690097331,-0.006349734352901578
1711649895403166000,8.951166015625,0.10292144529223442,-0.019103563594445584,-0.023328743541426954
1711649895413240300,8.961240234375,0.11161328579187392,-0.020911051407828927,-0.052593891394510865
1711649895423314200,8.971314208984374,0.0818161134213209,-0.009282353738695383,-0.02328172606192529
1711649895433389300,8.981389404296875,0.019881927555799483,0.0010567425113171339,0.0019082082414999602
1711649895443463200,8.991463134765626,-0.010284078127145766,0.030306510132178662,0.031733218467049296
1711649895453537000,9.001537109375,-0.040436639806628226,0.04127484419643879,0.042346199754998086
1711649895463611100,9.011611083984375,-0.05362286911606788,0.049222369134798646,0.05156443874891847
1711649895473685000,9.02168505859375,-0.05029693956375122,0.04258344257697463,0.04119534921944141
1711649895483759000,9.031759033203125,-0.032197803771495816,0.04890460842251777,-0.0015475217029452322
1711649895493833000,9.0418330078125,-0.017578326788544655,0.04787774959281087,-0.01943067665696144
1711649895503907300,9.0519072265625,-0.005166004461050033,0.026576529823616146,0.007933459880389272
1711649895513981200,9.061981201171875,0.003218377524614334,-0.005470394235104322,0.0027515637304633854
1711649895524055000,9.072054931640626,0.008810498443245888,0.013644202210009098,0.023259952621534467
1711649895534129200,9.082129150390625,0.01351297704577446,0.007006663891673088,0.053609315514750774
1711649895544203000,9.092203125,0.005448328533768654,-0.0023171909011900425,0.0238232125274837
1711649895554277000,9.102277099609376,-0.009062427377700804,0.006770443983003496,-0.0008901537727564573
1711649895564351000,9.11235107421875,-0.0036316345006227493,0.011184387967735528,-0.012395188529603182
1711649895574425000,9.122425048828125,0.027524551263451574,0.023160803095996378,-0.04225037469770759
1711649895584499200,9.132499267578124,0.025974399212002754,0.025350275964289903,-0.06059500968363136
1711649895594573000,9.142572998046875,0.015263035583496093,0.03227116126865148,-0.05158427596054971
1711649895604647200,9.152647216796876,-0.0012760112851858138,0.023844620641693473,-0.03042133215088397
1711649895614721000,9.162720947265624,-0.0162082074791193,0.045244624610245227,-0.03807604815512895
1711649895624796200,9.172796142578125,-0.015707272219657897,0.07352781222127378,-0.0348649771541357
1711649895634870000,9.1828701171875,-0.024192776492238045,0.08384016659483313,-0.06493117572441696
1711649895644944100,9.192944091796875,-0.019446458747982977,0.03591244038045406,-0.09823434692192821
1711649895655018000,9.20301806640625,-0.011487024176120757,0.009176993668079376,-0.07192629530876875
1711649895665092000,9.213092041015624,-0.0060690907806158064,-0.006149243344739079,-0.04935205992907286
1711649895675166200,9.223166259765625,0.014006898042559623,-0.02642674608938396,-0.03466032142750919
1711649895685240000,9.233239990234376,0.041105917370319364,-0.04034114354290068,0.00797057702038437
1711649895695314200,9.243314208984375,0.046101241439580914,-0.03879902866743505,0.025505101199820635
1711649895705388000,9.253387939453125,0.057476621934771537,-0.023183599449694156,0.021043409083224832
1711649895715462000,9.2634619140625,0.06903086612820625,-0.0295358180206269,0.01650182013083249
1711649895725536000,9.273535888671875,0.035757542079687114,-0.017303309239447114,-0.004578742625005543
1711649895735610000,9.283610107421875,0.005416179829835891,-0.015717574417963624,-0.006739646985940635
1711649895745684200,9.293684326171874,-0.0029874913781881333,0.007359057525917887,-0.0163884594168514
1711649895755758000,9.303758056640625,-0.006132803666591644,0.003768924079462886,-0.01496361424550414
1711649895765832200,9.313832275390626,-0.015161328774690628,-0.025715163753926754,0.023935111936740576
1711649895775906000,9.323906005859374,0.004347673815488815,-0.04448686504550278,0.04024944667145609
1711649895785980000,9.33397998046875,0.025238486152887343,-0.06456541115194558,0.032013642843626434
1711649895796054000,9.344053955078126,0.04324234487712383,-0.10206775107234715,0.01770765225663781
1711649895806128000,9.354128173828125,0.06641746875941754,-0.09394172776192426,-0.007010317153483629
1711649895816202200,9.3642021484375,0.06390870080888271,-0.10099858747087419,-0.03872267549559474
1711649895826277000,9.374277099609374,0.06935878290832043,-0.08695822555013001,-0.04179437455851585
1711649895836351200,9.384351318359375,0.061980947616696355,-0.07448978912122547,-0.04454433085378259
1711649895846425000,9.394425048828126,0.04093348341286182,-0.0487846353046596,-0.02954769112151116
1711649895856499200,9.404499267578124,0.016653028637170792,-0.015018267042189835,-0.0213510502602905
1711649895866573800,9.41457373046875,-0.05284428595900535,0.00870243495889008,0.0015093816496431827
1711649895876647700,9.424647705078126,-0.08623100725412368,0.033046091163903474,0.05418053953144699
1711649895886721500,9.434721435546875,-0.08785188645422458,0.008725961964949965,0.07267894030697643
1711649895896795600,9.444795654296875,-0.09286416165828704,-0.024655717828869817,0.06466328203584998
1711649895906869800,9.454869873046874,-0.02644201672375202,-0.04453947201557457,0.026163638173788785
1711649895916944000,9.46494384765625,0.031549568995833395,-0.056203533259034155,0.012072057522460818
1711649895927017700,9.475017822265626,0.06815057616233826,-0.08088993848711251,-0.029125410588830707
1711649895937091800,9.485091796875,0.09044891721010208,-0.07714812161028385,-0.02497092125788331
1711649895947165700,9.495165771484375,0.11563947256803511,-0.05815992802381515,-0.014865633763745426
1711649895957239600,9.505239501953126,0.099994159668684,-0.04402531194835901,-0.014849340216070412
1711649895967313700,9.515313720703125,0.008663783448934554,-0.00278305484727025,-0.0030829876419156787
1711649895977387800,9.5253876953125,-0.054036710613965984,0.022974267547950147,-0.013535992595180868
1711649895987462000,9.5354619140625,-0.07718260840177535,0.03877754748798907,-0.04109375200849026
1711649895997535700,9.54553564453125,-0.07501870836615562,0.03324154067076743,-0.02309939176496118
1711649896007609600,9.555609619140625,-0.05223404510617256,0.04534362800531089,0.0012353504812344907
1711649896017683700,9.56568359375,-0.0031359599381685253,0.015483400335907935,0.015537139817140996
1711649896027758600,9.575758544921875,0.06474632067680358,-0.011301876867562531,-0.012543291763402522
1711649896037832700,9.585832763671876,0.05525777684152126,-0.015739932380244136,-0.01116995758358389
1711649896047906600,9.595906494140625,0.07582008787691592,-0.0143510353051126,-0.012250921220704912
1711649896057980700,9.605980712890625,0.07006254726350307,-0.012626403469592332,-0.024198073721863327
1711649896068054800,9.6160546875,-0.0023678981751203538,0.01729497980251908,-0.04820055180639028
1711649896078129000,9.62612890625,-0.025416765329241753,0.017917495615035296,-0.05356383240520954
1711649896088202800,9.63620263671875,-0.04585691128969192,0.02354454171657562,-0.00929137729536742
1711649896098276600,9.646276611328124,-0.055549453264474864,0.025560046257451174,0.009489493683353067
1711649896108350700,9.656350830078125,-0.006002455285191536,0.04734963406547904,0.030139519534818825
1711649896118424600,9.666424560546876,0.017325228810310362,0.06100370008237659,0.011046586932241916
1711649896128498700,9.676498779296875,0.051174891442060465,0.05288279133848846,0.018376016504876313
1711649896138572800,9.68657275390625,0.06324409942030906,0.034608737370744345,0.0071745312718674535
1711649896148646700,9.696646728515624,0.06305705241560935,0.017605068664997815,0.00916493790410459
1711649896158720800,9.706720703125,0.07943710933029652,0.015718524266034362,0.02122607217375189
1711649896168794600,9.716794677734375,0.047404725253582,0.04146349863633513,0.039502902620472014
1711649896178868700,9.72686865234375,0.03456336385905742,0.051827217870950695,0.04464205560721457
1711649896188942600,9.736942626953125,-0.003438742277026176,0.05092771174795925,0.045016770671121774
1711649896199016700,9.7470166015625,-0.004561024305224418,0.05544336254149675,0.03196644270103425
1711649896209090800,9.7570908203125,-0.015669862818717954,0.06434015102870762,0.01435414057765156
1711649896219164700,9.76716455078125,0.005783844098448753,0.04709682834818959,-0.024925730409286913
1711649896229238800,9.77723876953125,-0.012902151671051978,0.05001673438288271,-0.004581336440891027
1711649896239313700,9.787313720703125,-0.004867313775420189,0.02621946001425385,0.03142342186551541
1711649896249387800,9.7973876953125,-0.015629530808329583,0.02111015417650342,0.036024485920183355
1711649896259461600,9.807461669921874,-0.02909808419048786,0.025371903274208307,0.05356478225328028
1711649896269535700,9.81753564453125,-0.046539632856845856,0.021676336691901086,0.0391943115953356
1711649896279609600,9.827609619140626,-0.04872749828994274,0.00018149404674768448,0.03367810545712709
1711649896289683700,9.83768359375,-0.022664251750707624,-0.034341391671448944,0.032932328591123224
1711649896299757800,9.8477578125,-0.017502338942885397,-0.046514790676534176,-0.005263656149245798
1711649896309831700,9.857831787109374,0.032165655067563054,-0.05917714224234223,-0.03565831948891282
1711649896319905800,9.86790576171875,0.08940905276834964,-0.08434870063886046,-0.01718585687223822
1711649896329979600,9.877979736328125,0.09883680632710456,-0.08979724836833775,0.029752273782901465
1711649896340053800,9.8880537109375,0.08636603181064129,-0.08123093394450843,0.0527163121977821
1711649896350127600,9.898127685546875,0.05334814382791519,-0.07290273912549018,0.05095072729736566
1711649896360201500,9.908201416015626,0.011592238116264343,-0.06528956070803106,0.042410935554280875
1711649896370275800,9.91827587890625,-0.00874503199160099,-0.04228175621666014,0.01687978659775108
1711649896380349700,9.928349609375,0.0034042554855346677,-0.04441781839728355,0.007032675115764141
1711649896390423800,9.938423828125,0.015777999368309974,-0.02818739908635616,-0.06361907021254301
1711649896400498700,9.948498779296875,0.024604864424467087,-0.03730433313027024,-0.10056384931541978
1711649896410572800,9.95857275390625,0.04637947385907173,-0.038072687154263256,-0.08855397030897438
1711649896420646700,9.968646728515624,0.05251812274456024,-0.04243365884274244,-0.07821567777656019
1711649896430720800,9.978720703125,0.040570495319366455,-0.030802696151286363,-0.039487668518722055
1711649896440794600,9.988794677734376,0.016346154645085334,-0.009328019511327147,-0.006855893776752054
1711649896450868500,9.998868408203125,-0.004342413118481636,0.020881606117635964,0.021034093265607953
1711649896460942800,10.00894287109375,-0.03159516170322895,0.03499481407888234,0.005724990050680935
1711649896471016700,10.0190166015625,-0.025606150421500204,0.06426343253068625,0.001164002278074622
1711649896481090800,10.0290908203125,-0.042081484404206275,0.05120389834083616,0.013698745408840477
1711649896491164700,10.03916455078125,-0.020336101064085958,0.04768967967480421,0.01670486842226237
1711649896501238800,10.04923876953125,-0.014314941078424452,0.0400894338041544,0.014164974681101738
1711649896511312600,10.059312744140625,0.005158990198373794,0.04109050060547888,0.04099635604862124
1711649896521386500,10.069386474609376,0.03180734314918518,0.020120558617264032,0.06319715500604361
1711649896531460900,10.0794609375,0.031524434554576874,-0.01014145478606224,0.059448177736066275
1711649896541534700,10.08953466796875,0.0017781155884265898,-0.025545579340681433,0.05112454949431121
1711649896551608800,10.09960888671875,0.03185819655358791,-0.027498028582707047,0.027189547155424952
1711649896561682700,10.1096826171875,0.045880292165279384,-0.029502354142442344,0.007516184316389262
1711649896571756500,10.119756591796875,0.028250527450442313,-0.03671586571782827,-0.02091324336491525
1711649896581830700,10.12983056640625,0.02399287000596523,-0.0542899547226727,-0.014678550226427613
1711649896591904800,10.13990478515625,0.05061725755929947,-0.05624488818272948,0.0062934741210192435
1711649896601979000,10.149978759765625,0.048608255824446674,-0.06257767140083015,0.010563771851360797
1711649896612052700,10.160052734375,0.042885786524415014,-0.05753083634003996,0.020047347250580785
1711649896622126800,10.170126953125,0.015173603734374045,-0.04799494623169303,0.015183577139116822
1711649896632201700,10.18020166015625,0.030286417192220687,-0.030004896837100385,-0.008584398069791496
1711649896642275800,10.19027587890625,0.02221709250509739,-0.03272241216748953,-0.028975919115543362
1711649896652349700,10.200349609375,0.014150690427422523,-0.020001170021295547,-0.031050752628222107
1711649896662423600,10.210423583984374,-0.03459843517243862,-0.0030224896263331175,-0.033697431212104854
1711649896672497700,10.22049755859375,-0.012108370944857597,-0.0014707301396876572,-0.023095775035768745
1711649896682571800,10.23057177734375,-0.017591770792007445,-0.014524784436821937,-0.044882842093147336
1711649896692646000,10.24064599609375,-0.007357377025485039,-0.017526304340362547,-0.053721653315424917
1711649896702719700,10.2507197265625,0.017064532047510145,-0.01460048002153635,-0.0646127574250102
1711649896712793900,10.2607939453125,0.0315665201306343,0.005779533249512314,-0.06390029830671846
1711649896722867700,10.27086767578125,0.02897124294042587,0.012429273462295531,-0.05319653346277773
1711649896732941600,10.280941650390625,0.02395370703935623,0.008778203608840704,-0.04001406701300293
1711649896743015700,10.291015625,0.00621054507791996,0.027667832191661,-0.02862228337228298
1711649896753089800,10.30108984375,0.0038140053302049633,0.03172258747518063,-0.013018398461863397
1711649896763164000,10.311163818359375,-0.06266016205251217,0.02727306072041392,-0.020779680113121864
1711649896773237800,10.32123779296875,-0.05259703319966793,0.013736921994760632,-0.04127173892389983
1711649896783311600,10.3313115234375,-0.012719196319580078,-0.015293430721759795,-0.030191286254674196
1711649896793385700,10.3413857421875,0.015440730237960814,-0.02756765975281596,-0.0059172977523878215
1711649896803459600,10.35145947265625,0.05489537326991558,-0.012709040251746772,0.0039054464733228084
1711649896813533700,10.36153369140625,0.08888181402385234,-0.02112637465894222,-0.0019025822183117269
1711649896823607800,10.37160791015625,0.067878773483634,-0.010861585754156113,-0.02981726531051099
1711649896833682000,10.381681884765625,0.018536358165740965,0.011184022641554475,-0.0437990654444322
1711649896843755800,10.391755859375,0.038220717322826385,0.007254281977191567,-0.06115403180588037
1711649896853829600,10.40182958984375,-0.02783376334309578,0.004296893476322293,-0.05557097097653895
1711649896863904800,10.41190478515625,-0.04705342759788036,-0.002206570133566856,-0.09986366515681147
1711649896873979000,10.421978759765626,-0.05975099660754203,-0.010296353086829186,-0.06605977789554744
1711649896884053000,10.432052978515625,-0.050938744598627086,-0.008442761109396815,-0.04613751832935959
1711649896894126800,10.442126953125,-0.02131809783875942,-0.024970848192647097,-0.005277940402925015
1711649896904201000,10.452200927734374,0.01339315005838871,-0.04192497866824269,0.017043744987808168
1711649896914274800,10.46227490234375,0.042425183275341984,-0.033803631532937285,0.04019870286490768
1711649896924349200,10.47234912109375,0.07607318585515022,-0.035909371640533205,0.03841565537303686
1711649896934423000,10.482423095703124,0.07524842546880245,-0.03935819692015648,0.027708164202049374
1711649896944497000,10.492496826171875,0.07763911999762058,-0.042864743736386296,-0.009067359281145035
1711649896954571000,10.502571044921876,0.06317921749055386,-0.041021746218204494,-0.024644283119402824
1711649896964644900,10.512644775390624,0.031017654076218603,0.00023410101681947706,-0.0036553807023912664
1711649896974719000,10.522718994140625,0.020745850908756254,0.029839696338027712,0.013072503269277513
1711649896984792800,10.532792724609376,-0.015744681620597837,0.031254750767722723,0.033665428638644516
1711649896994867000,10.542866943359375,-0.03472527642250061,0.05458046210184693,0.03656038289517164
1711649897004941000,10.552941162109375,-0.035730654072761533,0.06992993385978043,0.03408380018118769
1711649897015015000,10.563014892578124,-0.02421031214892864,0.07905117875263094,0.04073185989353806
1711649897025089000,10.573089111328125,-0.02785539065301418,0.07998626764565706,0.043319684429652984
1711649897035163000,10.583162841796875,-0.022802783438563345,0.0802342510573566,0.04109948762953281
1711649897045237000,10.593237060546874,-0.04527355844378471,0.07976327254474162,0.04188245470076799
1711649897055310800,10.603310791015625,-0.02370879236757755,0.06310293738394976,0.01880136577747762
1711649897065385000,10.613385009765626,-0.01721767678260803,0.06420476114600897,0.03723872054815292
1711649897075459000,10.623458984375,0.00289046074450016,0.05643829186297953,0.03856167624760419
1711649897085533000,10.633532958984375,0.012571312281489371,0.055002559971436854,0.01635645684339106
1711649897095608000,10.643608154296874,0.028373277047276494,0.04002995870187878,0.0025282398359850046
1711649897105682000,10.653681884765625,0.03351063993573188,0.037390184782817956,0.0012795184165239333
1711649897115756000,10.663756103515626,0.04713233805298805,0.03017141251042485,-0.018863252032548187
1711649897125830000,10.673829833984374,0.034897125858068465,0.0313234320897609,-0.030314876101724803
1711649897135904000,10.683904052734375,0.014326631516218184,0.013118570900708436,0.012179098093509673
1711649897145977900,10.693977783203126,0.032141689670085904,-0.004228358284756541,0.024844372268766162
1711649897156052000,10.704052001953125,0.026441432201862333,-0.0025212621059268712,0.037431831967458126
1711649897166126000,10.7141259765625,0.04250117112100124,0.02284041203521192,0.04094678128585219
1711649897176200000,10.724199951171874,0.04390636174380779,0.040201223615556954,0.01787270662523806
1711649897186274000,10.734274169921875,0.04908405664265156,0.04941825703307986,0.015151793761365115
1711649897196348000,10.744347900390625,0.03631517596244812,0.05411773996092379,-0.00611873860862106
1711649897206421800,10.754421875,0.014448796591162681,0.056956689713895316,0.003389715503528714
1711649897216495900,10.764495849609375,-0.019635843840241432,0.07156367254145443,0.002260857604071498
1711649897226570000,10.774570068359376,-0.041245033580064774,0.07649440694190561,0.00985785207170993
1711649897236644000,10.78464404296875,-0.04686170441806316,0.07152268294394015,0.01879340166673064
1711649897246718000,10.794718017578125,-0.03217325385212898,0.06108078390657901,0.02359079201109707
1711649897256792000,10.8047919921875,-0.025506781700253486,0.06403671110272408,0.006771138102747499
1711649897266866000,10.814865966796875,0.00912672478556633,0.0568964839592576,0.001886252138018608
1711649897276939800,10.824939697265625,0.036222821503877636,0.06271320741400123,-0.002842785677872598
1711649897287014000,10.835013916015624,0.041831309035420414,0.050057139458507295,-0.02661909032370895
1711649897297088000,10.845087890625,0.03728372873365879,0.057921370027586815,-0.02172759195510298
1711649897307162000,10.855162109375,0.0177723880559206,0.0759204064462334,-0.007116992398351431
1711649897317236000,10.865236083984374,-0.010453589475154876,0.05590966487899422,0.0155202982801944
1711649897327309800,10.875309814453125,-0.021786884394288063,0.055484425204247234,0.017950959493219853
1711649897337384000,10.885384033203126,-0.02733399712741375,0.0527392912145704,0.03232307411897927
1711649897347457800,10.895457763671875,0.012476619735360146,0.04630085566490888,0.028661409806273876
1711649897357533000,10.905532958984375,0.023817513439059256,0.03149798493906855,0.042325887619331475
1711649897367606800,10.915606689453124,0.029901801788806914,0.018217063083499668,0.024487448589876292
1711649897377681000,10.925680908203125,0.026059739407896992,0.016787760932743548,0.0038509032744914293
1711649897387755000,10.935755126953126,0.028175124126672745,0.009446896650642156,-0.00918404446337372
1711649897397829000,10.9458291015625,0.04422083452045917,0.015424071364104747,-0.0002126563699916005
1711649897407903000,10.955903076171875,0.03533902440667152,0.010072481203079223,-0.006930785643868148
1711649897417976800,10.965976806640626,0.00973930372595787,0.016943462951108813,-0.05993749562297016
1711649897428051000,10.976051025390625,0.02110591639280319,0.01211399696804583,-0.09488784950561821
1711649897438124800,10.986124755859375,0.010000585010647774,-0.003263458775356412,-0.06208670954611152
1711649897448199000,10.996198974609374,0.004797171148657798,-0.0008724719855934381,-0.0344666620189324
1711649897458273000,11.00627294921875,0.0055061962008476255,-0.005586348764970898,-0.03722352297902107
1711649897468347100,11.01634716796875,-0.006709142249822616,-0.01649769194498658,-0.037821196611225606
1711649897478421000,11.0264208984375,0.004796002104878425,-0.03401471700035035,-0.026616204246878623
1711649897488494800,11.036494873046875,0.005493336719274521,-0.02196699020154774,-0.030245646790415047
1711649897498569000,11.04656884765625,0.002003156515955925,-0.024564532414078712,-0.035562713627330954
1711649897508642800,11.056642822265625,0.023826281267404555,-0.029923282968252897,-0.05093169380333274
1711649897518717000,11.066717041015625,0.02026537391543388,-0.04092223136648535,-0.06711900462489574
1711649897528791000,11.076791015625,0.014603110370039939,-0.015319003554433584,-0.04365962044112384
1711649897538865000,11.086864990234375,0.039753918239474294,-0.021739172795042394,-0.01631258116904646
1711649897548939000,11.09693896484375,-0.004395020088553428,-0.03734451901018619,0.01792239098586142
1711649897559012900,11.107012939453124,0.021139818662405014,-0.053306277447566386,0.053464902075380086
1711649897569087000,11.1170869140625,0.009537059152126312,-0.060967532790452236,0.041472266464680434
1711649897579160800,11.127160888671876,0.021571195816993714,-0.06701053928174078,0.003932005686685443
1711649897589235000,11.13723486328125,0.00798690710067749,-0.05693981164433062,-0.012445347814261912
1711649897599309000,11.14730908203125,-0.006513911938667297,-0.06095430798269808,-0.031000922137126324
1711649897609383000,11.1573828125,0.016347323688864705,-0.07107574289403855,-0.027222316913865504
1711649897619457000,11.16745703125,0.013710545444488525,-0.08395546353757381,0.009260945624485612
1711649897629532000,11.177531982421876,0.028279753544926643,-0.07954678024984896,0.024707192287780344
1711649897639606000,11.18760595703125,0.056817281243205064,-0.055329892229661344,0.022947708334587515
1711649897649680000,11.197679931640625,0.010020458754897116,-0.05766323054805397,0.005906520630046725
1711649897659754000,11.20775390625,-0.017595277923345566,-0.0427621601447463,0.01265515464004129
1711649897669827800,11.217827880859375,0.00045358898639678955,-0.04281995474658906,0.004260032064653933
1711649897679902000,11.22790185546875,-0.015953940457105634,-0.03964468571133911,-0.017074651582725343
1711649897689976000,11.23797607421875,-0.03348433645069599,-0.056198199496790766,-0.04796864274665713
1711649897700050000,11.2480498046875,-0.022080314382910728,-0.09220957020707428,-0.013756540010683238
1711649897710124000,11.2581240234375,-0.007218260815739631,-0.09594583412595092,0.01577317706272006
1711649897720198000,11.268197998046874,0.014290975680947303,-0.07409589443281292,0.030489282820560036
1711649897730272000,11.27827197265625,0.05017068283557891,-0.06544073268175125,0.03349840150866657
1711649897740345900,11.288345947265626,0.07228373044431209,-0.054975014377385376,0.02569846834745258
1711649897750420000,11.298419921875,0.1011526820540428,-0.036239334247261286,-0.004549808791466057
1711649897760494000,11.308494140625,0.10949380941987037,-0.016500614554435012,-0.042144357039965684
1711649897770568000,11.31856787109375,0.08034545634686946,-0.010640636479854583,-0.0560363965312019
1711649897780642000,11.32864208984375,0.054587914755940437,0.03258687615431845,-0.0568984932532534
1711649897790716000,11.3387158203125,0.010231471157073974,0.06737608465850353,-0.03036726387608796
1711649897800790000,11.3487900390625,-0.019903554865717887,0.07784238748475909,0.012113558576628564
1711649897810863900,11.35886376953125,-0.06185235280096531,0.08770984763503074,0.036512159839272494
1711649897820938000,11.36893798828125,-0.06855155817866325,0.10453896349146961,0.01785400192476809
1711649897831012000,11.37901220703125,-0.07028700366914271,0.08652268367707729,0.004237491439282894
1711649897841086000,11.3890859375,-0.03453238419890404,0.06723696844875812,-0.023825331419333816
1711649897851160000,11.39916015625,-0.00013210194706916807,0.06956826094053685,-0.015312171954847872
1711649897861234000,11.40923388671875,0.03372866660058498,0.07630845591574907,-0.03971862773038447
1711649897871307300,11.419307373046875,0.020463526836037634,0.0680921970386058,-0.04720565901752561
1711649897881381400,11.42938134765625,-0.0007417582780122757,0.06427431925088167,-0.03183978411406278
1711649897891455500,11.43945556640625,-0.013065817800164222,0.05414228988029062,0.014628281343914567
1711649897901529300,11.449529296875,-0.02789163101017475,0.04639394077584147,0.04772526244483888
1711649897911604500,11.4596044921875,-0.016549568262696265,0.05857976087108254,0.06274762114025652
1711649897921678300,11.46967822265625,0.0004541735082864761,0.06087627431042492,0.05688055573776364
1711649897931752400,11.47975244140625,0.003598316752910614,0.039135494080185886,0.03783566352799535
1711649897941826300,11.489826416015624,0.04288286391496658,0.003074512074515223,-0.0006240136498585343
1711649897951900200,11.499900146484375,0.04908171855509281,-0.019487667541205882,-0.02338865703511983
1711649897961974300,11.509974365234376,0.05646189193427562,-0.034034956070780754,-0.011306406912207603
1711649897972048400,11.52004833984375,0.05004325706362724,-0.04662628822699189,0.0012734174693003297
1711649897982122500,11.53012255859375,0.05675123026967048,-0.04134425617083907,0.00917162337321788
1711649897992196400,11.5401962890625,0.058548050558567044,-0.04371609986871481,-0.0072828139519318935
1711649898002270200,11.550270263671875,0.05532967303395271,-0.023997107789665458,-0.007147058743052184
1711649898012344300,11.56034423828125,0.04091653227806091,0.012403043042495846,-0.016027663280442354
1711649898022418200,11.570418212890624,0.028194997870922087,0.02509250181093812,-0.015064919195510446
1711649898032492300,11.5804921875,-0.014169395127892493,0.036899990113079546,-0.0028760668929666278
1711649898042566400,11.59056640625,-0.03976560867726803,0.04590433062799275,0.0014455956984311341
1711649898052640500,11.600640625,-0.06590835019350051,0.04201989041008055,0.03590206511691212
1711649898062714400,11.61071435546875,-0.061545478808879846,0.04712605444267392,0.039798195772618054
1711649898072788200,11.620788330078126,-0.019787235009670258,0.023046090675145386,0.024595292878523467
1711649898082862300,11.6308623046875,-0.010999532920122146,0.0033010873720049857,-0.009063231095299124
1711649898092936200,11.640936279296875,0.009444120171666145,-0.002064312118664384,-0.020833638790063558
1711649898103010300,11.65101025390625,0.03758183489739895,-0.008138298270106314,-0.03237432938218117
1711649898113084400,11.66108447265625,0.041776363977789874,-0.01261018298715353,-0.027483379002846777
1711649898123158500,11.671158447265626,0.06935001507997512,-0.012184870247170328,-0.021500651331432162
1711649898133232400,11.681232421875,0.03120820821225643,-0.002181508757546544,-0.003046455023810267
1711649898143306200,11.69130615234375,-0.008690086933970451,-0.006607946897670626,0.009268946267850697
1711649898153380400,11.70138037109375,-0.025562895801663398,-0.009798998023942112,-0.012237367619387804
1711649898163454200,11.7114541015625,-0.02546995682120323,-0.007625818703323602,-0.024418730735220013
1711649898173528300,11.7215283203125,-0.012893968364596366,-0.008804068702459335,-0.04652355850487947
1711649898183602400,11.7316025390625,0.0016150339812040328,-0.016800620414316653,-0.07425565157178789
1711649898193676300,11.74167626953125,0.03144961575269699,-0.028532851523160933,-0.0853109332671389
1711649898203750400,11.75175048828125,0.05235562565922737,-0.014623422505706548,-0.0976827043885365
1711649898213824300,11.76182421875,0.047555531901121134,-0.01931537971422076,-0.08001045223884284
1711649898223898400,11.7718984375,0.038974166038632393,-0.02064429023042321,-0.051162178090959784
1711649898233973200,11.78197314453125,-0.008210194462537766,-0.009498261511698365,-0.04774301729723811
1711649898244047400,11.79204736328125,-0.01618424208164215,-0.015854863996803758,-0.028646869824267923
1711649898254121200,11.802121337890625,-0.015146131205558777,0.0017282850973308085,-0.006941014776937663
1711649898264195300,11.8121953125,-0.02046294231414795,0.00938252617754042,-0.0021331030385568737
1711649898274269400,11.82226953125,-0.006279518660902977,0.022375497937202452,0.000584302693977952
1711649898284343300,11.83234326171875,0.0318850845605135,0.03392923067398369,-0.031423458398133514
1711649898294417400,11.84241748046875,0.02617547474205494,0.021041180593520403,-0.010293467009998858
1711649898304491300,11.8524912109375,0.04171382013559341,0.013739917669445276,0.015482669683545827
1711649898314565400,11.8625654296875,0.024759178203344345,0.00949343920610845,0.014014058435708283
1711649898324639200,11.87263916015625,0.028431729236245155,0.0056282151453197,0.039477548983506854
1711649898334713300,11.88271337890625,0.027421675410866736,0.01397920631803572,0.05138279857169836
1711649898344787500,11.892787353515626,0.008919219514727591,0.02671272342391312,0.05564480339772999
1711649898354861300,11.902861328125,0.00732289023399353,0.04422821410931647,0.06300930428374558
1711649898364935400,11.912935302734375,0.01386544374525547,0.040248423758149146,0.06128375913277268
1711649898375009300,11.92300927734375,0.01645955189168453,0.04077887737303972,0.06373202906772495
1711649898385083400,11.93308349609375,-0.012437456768751144,0.045230523019656535,0.0542021668413654
1711649898395157200,11.9431572265625,-0.0002530979782342911,0.045033466077595945,0.010913206343539058
1711649898405231400,11.9532314453125,0.002128244200348854,0.029435207190364597,-0.016678418806754053
1711649898415305500,11.963305419921875,-0.0026467151165008545,0.014245382973551749,-0.05232230791151523
1711649898425379300,11.97337939453125,0.015126841983199118,0.0014106705155223606,-0.09302150764446705
1711649898435453400,11.983453369140625,0.007753098344802856,-0.02150616775676608,-0.08551741562467068
1711649898445527300,11.99352734375,0.010503273835778235,-0.021348785237967967,-0.07278755178060382
1711649898455601400,12.003601318359374,0.022253332862257957,-0.013881956488639116,-0.04386975606046617
1711649898465675300,12.01367529296875,0.0254191034168005,-0.015494506251811981,0.009669380294904112
1711649898475749400,12.023749267578125,0.02429097616970539,-0.02719225056916475,0.025630408079922198
1711649898485823500,12.033823486328124,0.020263035827875135,-0.011835618418082594,0.003292502206750214
1711649898495897300,12.0438974609375,-0.002208323699235916,-0.00252381938919425,-0.021657376263104378
1711649898505971500,12.053971435546876,0.0039782559812068935,-0.007456015094369649,-0.05755699369460344
1711649898516045300,12.06404541015625,0.017016601252555847,-0.011047171454131602,-0.09434917605165391
1711649898526119200,12.074119140625,0.0049468087524175645,-0.011155161873251199,-0.08213486051429063
1711649898536193300,12.084193359375,-0.0042658407509326935,-0.03298442410454154,-0.04326557962223887
1711649898546267400,12.094267333984375,-0.02220481754541397,-0.0310189692504704,0.05001282539274543
1711649898556342300,12.10434228515625,-0.011422726768255233,-0.04105411411784589,0.10979830879177897
1711649898566416400,12.11441650390625,0.018752631264925,-0.03616363866254687,0.13566983215119688
1711649898576490500,12.124490478515625,0.03185410490036011,-0.033606209264695645,0.1445224161705002
1711649898586564400,12.134564453125,0.060383449292182916,-0.0283044495947659,0.13476981457155196
1711649898596638500,12.144638427734375,0.07887772188186645,-0.03321457959860563,0.103141371653229
1711649898606712300,12.15471240234375,0.08568506380915641,-0.018390593019500374,0.03479717261493206
1711649898616786200,12.1647861328125,0.08133212929666042,-0.013827376757189631,-0.01732869940903038
1711649898626860300,12.1748603515625,0.06758008279800415,-0.0063444736558943985,0.0074982102682814
1711649898636934400,12.184934326171875,0.020636545315384863,0.012370163686200976,0.015034925916045903
1711649898647008500,12.195008544921874,-0.025282909816503524,0.022963380827754735,0.03876505333259701
1711649898657082400,12.205082275390625,-0.04334288264214992,0.022678937863186,0.07682773054949939
1711649898667156200,12.21515625,-0.03867430630922317,0.024116057994216678,0.08114274420440197
1711649898677230300,12.225230224609374,-0.01487666661441326,0.04198058131299913,0.07923431676719338
1711649898687304200,12.23530419921875,-0.005151391413807869,0.03372128701172769,0.04310384972188622
1711649898697378300,12.24537841796875,0.021520926934480666,0.022914865510910747,-0.005235599098540843
1711649898707452400,12.255452392578125,0.023185645276308058,0.024865561187267304,-0.053885282911919054
1711649898717526500,12.265526611328125,0.011316343784332274,0.026402269235253333,-0.08236165500748902
