time,seconds_elapsed,z,y,x
1711649886516563700,0.064563720703125,-0.9467926025390625,-0.32275390625,0.0790863037109375
1711649886526637600,0.074637451171875,-0.9442596435546875,-0.318878173828125,0.078094482421875
1711649886536711700,0.084711669921875,-0.948089599609375,-0.3223724365234375,0.06976318359375
1711649886546785500,0.09478564453125,-0.957672119140625,-0.3208160400390625,0.0602264404296875
1711649886556859400,0.104859375,-0.9718170166015625,-0.3128814697265625,0.058441162109375
1711649886566933500,0.11493359375,-0.9804534912109375,-0.307861328125,0.0535430908203125
1711649886577008400,0.12500830078125,-0.9764556884765625,-0.3042755126953125,0.056060791015625
1711649886587082800,0.135082763671875,-0.9641571044921875,-0.3048095703125,0.05694580078125
1711649886597156600,0.145156494140625,-0.9490966796875,-0.3044586181640625,0.056549072265625
1711649886607230700,0.155230712890625,-0.9341888427734375,-0.3044586181640625,0.0533294677734375
1711649886617304600,0.1653046875,-0.922027587890625,-0.305389404296875,0.0439453125
1711649886627378700,0.175378662109375,-0.921112060546875,-0.3112335205078125,0.0338134765625
1711649886637452500,0.18545263671875,-0.92041015625,-0.3113250732421875,0.0276031494140625
1711649886647526400,0.1955263671875,-0.9224700927734375,-0.3050537109375,0.02264404296875
1711649886657601500,0.2056015625,-0.9273223876953125,-0.302764892578125,0.0217742919921875
1711649886667675400,0.21567529296875,-0.9302215576171875,-0.3027191162109375,0.0136260986328125
1711649886677749800,0.225749755859375,-0.9224395751953125,-0.3006439208984375,0.0107421875
1711649886687823600,0.23582373046875,-0.9195556640625,-0.2890625,0.0078582763671875
1711649886697897700,0.245897705078125,-0.9116363525390625,-0.2936248779296875,0.0164947509765625
1711649886707971600,0.2559716796875,-0.885650634765625,-0.3156585693359375,0.032989501953125
1711649886718045400,0.26604541015625,-0.934234619140625,-0.283111572265625,0.0296173095703125
1711649886728119600,0.27611962890625,-0.970977783203125,-0.2647857666015625,0.0010528564453125
1711649886738194700,0.286194580078125,-0.9897308349609375,-0.2606964111328125,-0.0278778076171875
1711649886748268500,0.2962685546875,-1.00482177734375,-0.261871337890625,-0.040496826171875
1711649886758342400,0.30634228515625,-1.0008697509765625,-0.2586517333984375,-0.052093505859375
1711649886768416800,0.316416748046875,-0.9806976318359375,-0.2465362548828125,-0.052642822265625
1711649886778490600,0.32649072265625,-0.97186279296875,-0.234344482421875,-0.0395355224609375
1711649886788564700,0.336564697265625,-0.9984130859375,-0.22503662109375,-0.037933349609375
1711649886798638600,0.346638671875,-1.030548095703125,-0.22357177734375,-0.041229248046875
1711649886808712400,0.35671240234375,-1.0445709228515625,-0.2024383544921875,-0.051849365234375
1711649886818787600,0.36678759765625,-1.0510711669921875,-0.166595458984375,-0.055328369140625
1711649886828861400,0.376861328125,-1.063232421875,-0.16314697265625,-0.04803466796875
1711649886838935600,0.386935546875,-1.0650634765625,-0.185546875,-0.0430145263671875
1711649886849009400,0.397009521484375,-1.0459442138671875,-0.2111053466796875,-0.0516815185546875
1711649886859083500,0.40708349609375,-1.0041046142578125,-0.213623046875,-0.0622406005859375
1711649886869157400,0.417157470703125,-0.984375,-0.205535888671875,-0.0691986083984375
1711649886879231500,0.4272314453125,-0.9814605712890625,-0.2020263671875,-0.0705413818359375
1711649886889305300,0.437305419921875,-0.9682769775390625,-0.202117919921875,-0.0812835693359375
1711649886899380500,0.44738037109375,-0.9611663818359375,-0.201904296875,-0.082611083984375
1711649886909454300,0.457454345703125,-0.9768218994140625,-0.18499755859375,-0.083099365234375
1711649886919528200,0.467528076171875,-0.995574951171875,-0.1640625,-0.0960845947265625
1711649886929602300,0.477602294921875,-1.0164794921875,-0.1638031005859375,-0.108306884765625
1711649886939676200,0.48767626953125,-1.024627685546875,-0.178924560546875,-0.1163330078125
1711649886949750500,0.49775048828125,-1.0136871337890625,-0.19000244140625,-0.1162567138671875
1711649886959824400,0.507824462890625,-0.9919586181640625,-0.2012786865234375,-0.1076507568359375
1711649886969898200,0.517898193359375,-0.9658050537109375,-0.2186737060546875,-0.0845489501953125
1711649886979973400,0.527973388671875,-0.9423980712890625,-0.2338409423828125,-0.07452392578125
1711649886990047500,0.538047607421875,-0.92236328125,-0.2445526123046875,-0.0801544189453125
1711649887000121300,0.548121337890625,-0.908203125,-0.2535400390625,-0.07562255859375
1711649887010195200,0.5581953125,-0.8956298828125,-0.2615203857421875,-0.078399658203125
1711649887020269300,0.568269287109375,-0.8945159912109375,-0.2634124755859375,-0.0875396728515625
1711649887030343200,0.57834326171875,-0.9019775390625,-0.26434326171875,-0.0858612060546875
1711649887040417500,0.58841748046875,-0.9165802001953125,-0.2656707763671875,-0.07635498046875
1711649887050491400,0.598491455078125,-0.9314422607421875,-0.2839508056640625,-0.0503082275390625
1711649887060566500,0.60856640625,-0.9411773681640625,-0.2980499267578125,-0.019256591796875
1711649887070640400,0.618640380859375,-0.9449310302734375,-0.293792724609375,-0.016021728515625
1711649887080714200,0.62871435546875,-0.948516845703125,-0.2668914794921875,-0.04449462890625
1711649887090788400,0.638788330078125,-0.9582366943359375,-0.2489166259765625,-0.0794830322265625
1711649887100862200,0.6488623046875,-0.97015380859375,-0.2233123779296875,-0.10015869140625
1711649887110936300,0.658936279296875,-0.9773101806640625,-0.1874237060546875,-0.1193695068359375
1711649887121010200,0.66901025390625,-0.98931884765625,-0.1620025634765625,-0.1497802734375
1711649887131084500,0.67908447265625,-0.9983673095703125,-0.1610870361328125,-0.162628173828125
1711649887141158400,0.689158447265625,-0.9926300048828125,-0.16802978515625,-0.166473388671875
1711649887151233500,0.699233642578125,-0.9853057861328125,-0.1759185791015625,-0.1622314453125
1711649887161307400,0.709307373046875,-0.974884033203125,-0.17462158203125,-0.1548004150390625
1711649887171381200,0.71938134765625,-0.956695556640625,-0.1689300537109375,-0.1593017578125
1711649887181455400,0.729455322265625,-0.94476318359375,-0.163330078125,-0.156097412109375
1711649887191529200,0.739529296875,-0.947479248046875,-0.1537628173828125,-0.1533050537109375
1711649887201603300,0.749603271484375,-0.9611053466796875,-0.147369384765625,-0.1633453369140625
1711649887211677400,0.759677490234375,-0.9714813232421875,-0.134490966796875,-0.138427734375
1711649887221751600,0.76975146484375,-0.980621337890625,-0.1319427490234375,-0.136444091796875
1711649887231826400,0.779826416015625,-0.980438232421875,-0.1334381103515625,-0.1290740966796875
1711649887241900500,0.789900634765625,-0.966064453125,-0.126708984375,-0.1281280517578125
1711649887251974400,0.799974365234375,-0.9476165771484375,-0.117218017578125,-0.11334228515625
1711649887262048300,0.81004833984375,-0.9422760009765625,-0.10797119140625,-0.0978851318359375
1711649887272122400,0.820122314453125,-0.9582672119140625,-0.113739013671875,-0.133026123046875
1711649887282196200,0.8301962890625,-0.9815216064453125,-0.1131134033203125,-0.1413726806640625
1711649887292270300,0.840270263671875,-1.002105712890625,-0.110321044921875,-0.1391754150390625
1711649887302344400,0.850344482421875,-1.0126953125,-0.11199951171875,-0.137939453125
1711649887312419300,0.86041943359375,-1.0123748779296875,-0.112579345703125,-0.1456756591796875
1711649887322493400,0.870493408203125,-1.0115203857421875,-0.112457275390625,-0.156036376953125
1711649887332567600,0.880567626953125,-0.9992523193359375,-0.1072540283203125,-0.165557861328125
1711649887342641400,0.890641357421875,-0.9862823486328125,-0.1037445068359375,-0.172515869140625
1711649887352715300,0.90071533203125,-0.9793548583984375,-0.1024627685546875,-0.1739959716796875
1711649887362789400,0.910789306640625,-0.9835052490234375,-0.0999908447265625,-0.173065185546875
1711649887372863200,0.92086328125,-0.9965362548828125,-0.103668212890625,-0.1727142333984375
1711649887382937300,0.930937255859375,-1.0037689208984375,-0.109771728515625,-0.1786041259765625
1711649887393012200,0.94101220703125,-0.98858642578125,-0.111083984375,-0.1900787353515625
1711649887403086300,0.95108642578125,-0.9759521484375,-0.1103363037109375,-0.202911376953125
1711649887413160400,0.961160400390625,-0.96173095703125,-0.120697021484375,-0.206451416015625
1711649887423234300,0.971234375,-0.942535400390625,-0.1425933837890625,-0.1933135986328125
1711649887433308400,0.981308349609375,-0.92608642578125,-0.157379150390625,-0.1748046875
1711649887443382300,0.99138232421875,-0.920623779296875,-0.1498870849609375,-0.1904144287109375
1711649887453456400,1.001456298828125,-0.9266204833984375,-0.1673126220703125,-0.1913909912109375
1711649887463530200,1.0115302734375,-0.940826416015625,-0.1742706298828125,-0.2073974609375
1711649887473605400,1.02160546875,-0.95709228515625,-0.1749114990234375,-0.2100982666015625
1711649887483679200,1.03167919921875,-0.9626922607421875,-0.1768951416015625,-0.1767730712890625
1711649887493753300,1.04175341796875,-0.9630279541015625,-0.1728363037109375,-0.1475677490234375
1711649887503827500,1.051827392578125,-0.9632568359375,-0.1701202392578125,-0.1374359130859375
1711649887513901300,1.0619013671875,-0.9652862548828125,-0.175048828125,-0.1402587890625
1711649887523975400,1.071975341796875,-0.9651641845703125,-0.1830596923828125,-0.1314239501953125
1711649887534049300,1.08204931640625,-0.968994140625,-0.1869049072265625,-0.1271820068359375
1711649887544123400,1.092123291015625,-0.972412109375,-0.17999267578125,-0.1224517822265625
1711649887554198300,1.1021982421875,-0.9814605712890625,-0.1815948486328125,-0.1251220703125
1711649887564272400,1.1122724609375,-0.987762451171875,-0.1915283203125,-0.11773681640625
1711649887574346200,1.12234619140625,-0.9720001220703125,-0.1955413818359375,-0.1072998046875
1711649887584420400,1.13242041015625,-0.9478607177734375,-0.2012786865234375,-0.1001129150390625
1711649887594494500,1.142494384765625,-0.933319091796875,-0.21197509765625,-0.0940704345703125
1711649887604568300,1.152568359375,-0.9288482666015625,-0.208282470703125,-0.089202880859375
1711649887614642400,1.162642333984375,-0.9489288330078125,-0.1981201171875,-0.0928192138671875
1711649887624716300,1.17271630859375,-0.9891815185546875,-0.2023162841796875,-0.081573486328125
1711649887634791400,1.18279150390625,-1.0086822509765625,-0.2192230224609375,-0.04766845703125
1711649887644865300,1.192865234375,-1.00152587890625,-0.2359161376953125,-0.02587890625
1711649887654939400,1.202939453125,-0.987091064453125,-0.2343902587890625,-0.027984619140625
1711649887665013200,1.21301318359375,-0.976226806640625,-0.22100830078125,-0.047393798828125
1711649887675087400,1.22308740234375,-0.9694976806640625,-0.2111053466796875,-0.0757904052734375
1711649887685161500,1.233161376953125,-0.9667205810546875,-0.210479736328125,-0.0904998779296875
1711649887695235300,1.2432353515625,-0.9762115478515625,-0.2135772705078125,-0.0945892333984375
1711649887705309400,1.253309326171875,-0.992095947265625,-0.2161712646484375,-0.089630126953125
1711649887715383300,1.26338330078125,-0.9970245361328125,-0.219482421875,-0.07598876953125
1711649887725458400,1.27345849609375,-0.99505615234375,-0.2207489013671875,-0.05938720703125
1711649887735532300,1.2835322265625,-0.9902801513671875,-0.2252960205078125,-0.0523834228515625
1711649887745606400,1.2936064453125,-0.982757568359375,-0.2292633056640625,-0.048614501953125
1711649887755680300,1.30368017578125,-0.97332763671875,-0.231719970703125,-0.047271728515625
1711649887765754000,1.313754150390625,-0.967010498046875,-0.2309722900390625,-0.0455780029296875
1711649887775828500,1.323828369140625,-0.9663238525390625,-0.2316436767578125,-0.04351806640625
1711649887785902300,1.33390234375,-0.9726104736328125,-0.2398223876953125,-0.0388031005859375
1711649887795976400,1.3439765625,-0.9701690673828125,-0.246063232421875,-0.0318450927734375
1711649887806051300,1.35405126953125,-0.961090087890625,-0.2523040771484375,-0.0244903564453125
1711649887816125400,1.36412548828125,-0.9449462890625,-0.2645263671875,-0.0195159912109375
1711649887826199300,1.37419921875,-0.9715728759765625,-0.267730712890625,-0.0349273681640625
1711649887836273400,1.3842734375,-0.9517974853515625,-0.2487945556640625,-0.039947509765625
1711649887846347300,1.39434716796875,-0.9290771484375,-0.234375,-0.030029296875
1711649887856422000,1.404421875,-0.923126220703125,-0.2350616455078125,-0.03192138671875
1711649887866495700,1.414495849609375,-0.9414215087890625,-0.22900390625,-0.0420989990234375
1711649887876569900,1.42456982421875,-0.9620513916015625,-0.2245025634765625,-0.04736328125
1711649887886644000,1.43464404296875,-0.98358154296875,-0.226715087890625,-0.05126953125
1711649887896718800,1.44471875,-0.9981536865234375,-0.231597900390625,-0.0410614013671875
1711649887906793000,1.45479296875,-0.9994964599609375,-0.230743408203125,-0.026275634765625
1711649887916866800,1.46486669921875,-0.99871826171875,-0.22998046875,-0.0219268798828125
1711649887926941000,1.47494091796875,-0.9968414306640625,-0.2286376953125,-0.0222625732421875
1711649887937014800,1.485014892578125,-0.9933624267578125,-0.218536376953125,-0.03094482421875
1711649887947088600,1.495088623046875,-0.988983154296875,-0.210540771484375,-0.040008544921875
1711649887957162800,1.505162841796875,-0.9838409423828125,-0.214691162109375,-0.0478057861328125
1711649887967236900,1.51523681640625,-0.975616455078125,-0.2191009521484375,-0.053680419921875
1711649887977311700,1.525311767578125,-0.9716949462890625,-0.220703125,-0.0617218017578125
1711649887987385900,1.5353857421875,-0.9680633544921875,-0.219818115234375,-0.0674896240234375
1711649887997460000,1.5454599609375,-0.9589691162109375,-0.22125244140625,-0.0713348388671875
1711649888007533800,1.555533935546875,-0.9526824951171875,-0.22601318359375,-0.06317138671875
1711649888017608000,1.56560791015625,-0.9501190185546875,-0.230987548828125,-0.049072265625
1711649888027681800,1.575681884765625,-0.9542236328125,-0.237060546875,-0.04241943359375
1711649888037755600,1.585755615234375,-0.961212158203125,-0.244140625,-0.0350494384765625
1711649888047829800,1.595829833984375,-0.969390869140625,-0.24615478515625,-0.03228759765625
1711649888057903900,1.60590380859375,-0.9770050048828125,-0.2469329833984375,-0.0337982177734375
1711649888067978800,1.615978759765625,-0.98504638671875,-0.2463226318359375,-0.0345458984375
1711649888078052900,1.626052978515625,-0.98687744140625,-0.2475128173828125,-0.03228759765625
1711649888088127000,1.636126953125,-0.9809722900390625,-0.2501983642578125,-0.0338134765625
1711649888098200800,1.646200927734375,-0.9701385498046875,-0.2484893798828125,-0.03070068359375
1711649888108275000,1.65627490234375,-0.96221923828125,-0.2483673095703125,-0.024688720703125
1711649888118348800,1.666348876953125,-0.963409423828125,-0.250274658203125,-0.024566650390625
1711649888128422700,1.676422607421875,-0.963714599609375,-0.256500244140625,-0.0221405029296875
1711649888138496800,1.686496826171875,-0.955474853515625,-0.2606201171875,-0.019866943359375
1711649888148571000,1.69657080078125,-0.941650390625,-0.257293701171875,-0.0276336669921875
1711649888158645800,1.706645751953125,-0.9310455322265625,-0.25,-0.0386199951171875
1711649888168720000,1.716719970703125,-0.9278411865234375,-0.2366943359375,-0.057891845703125
1711649888178794000,1.7267939453125,-0.93328857421875,-0.2215118408203125,-0.075836181640625
1711649888188867800,1.736867919921875,-0.948211669921875,-0.2192230224609375,-0.07843017578125
1711649888198942000,1.74694189453125,-0.969512939453125,-0.216094970703125,-0.078765869140625
1711649888209015800,1.757015869140625,-0.9788665771484375,-0.2075958251953125,-0.0753326416015625
1711649888219089700,1.767089599609375,-0.9837799072265625,-0.2017364501953125,-0.0722503662109375
1711649888229163800,1.777163818359375,-0.9875030517578125,-0.20172119140625,-0.0576934814453125
1711649888239238000,1.78723779296875,-0.9927978515625,-0.20220947265625,-0.0523223876953125
1711649888249312800,1.797312744140625,-0.99755859375,-0.205078125,-0.051544189453125
1711649888259387000,1.807386962890625,-0.9967803955078125,-0.2054901123046875,-0.053924560546875
1711649888269461000,1.8174609375,-0.993988037109375,-0.2088470458984375,-0.0549468994140625
1711649888279534800,1.827534912109375,-0.9851837158203125,-0.2108001708984375,-0.0490570068359375
1711649888289609000,1.83760888671875,-0.9764556884765625,-0.213226318359375,-0.0384063720703125
1711649888299682800,1.847682861328125,-0.9686431884765625,-0.213897705078125,-0.0388641357421875
1711649888309756700,1.857756591796875,-0.9723052978515625,-0.208953857421875,-0.037628173828125
1711649888319830800,1.867830810546875,-0.9783477783203125,-0.2040252685546875,-0.0514678955078125
1711649888329905000,1.87790478515625,-0.9796295166015625,-0.2026824951171875,-0.0676727294921875
1711649888339979800,1.887979736328125,-0.97882080078125,-0.1983795166015625,-0.0745697021484375
1711649888350054000,1.898053955078125,-0.9819488525390625,-0.198089599609375,-0.0736083984375
1711649888360128000,1.9081279296875,-0.9815216064453125,-0.202667236328125,-0.05706787109375
1711649888370201900,1.918201904296875,-0.98297119140625,-0.2052154541015625,-0.049957275390625
1711649888380275700,1.928275634765625,-0.9906005859375,-0.1984710693359375,-0.058319091796875
1711649888390349800,1.938349853515625,-0.9951019287109375,-0.1847076416015625,-0.0643768310546875
1711649888400423700,1.948423583984375,-0.99517822265625,-0.17919921875,-0.0750885009765625
1711649888410497800,1.958497802734375,-0.9922332763671875,-0.16796875,-0.0839080810546875
1711649888420572000,1.968572021484375,-0.994171142578125,-0.158660888671875,-0.095458984375
1711649888430646800,1.978646728515625,-0.994720458984375,-0.1469268798828125,-0.114044189453125
1711649888440721000,1.988720947265625,-0.9914398193359375,-0.14154052734375,-0.1302642822265625
1711649888450795000,1.998794921875,-0.9800567626953125,-0.13323974609375,-0.13714599609375
1711649888460868900,2.008868896484375,-0.96563720703125,-0.1251220703125,-0.1492919921875
1711649888470942700,2.018942626953125,-0.9601593017578125,-0.1307373046875,-0.1596527099609375
1711649888481016800,2.029016845703125,-0.954864501953125,-0.1338348388671875,-0.1705780029296875
1711649888491090700,2.039090576171875,-0.9476470947265625,-0.1335601806640625,-0.1792755126953125
1711649888501164800,2.049164794921875,-0.944915771484375,-0.1324615478515625,-0.1831207275390625
1711649888511239000,2.059239013671875,-0.95306396484375,-0.1321258544921875,-0.18109130859375
1711649888521313000,2.06931298828125,-0.9646453857421875,-0.135711669921875,-0.1602935791015625
1711649888531388000,2.079387939453125,-0.9616546630859375,-0.1403045654296875,-0.1318359375
1711649888541462000,2.0894619140625,-0.9619598388671875,-0.14337158203125,-0.114532470703125
1711649888551535900,2.099535888671875,-0.9726409912109375,-0.1462554931640625,-0.103851318359375
1711649888561609700,2.109609619140625,-0.9839935302734375,-0.1365203857421875,-0.1104278564453125
1711649888571683800,2.119683837890625,-0.9971160888671875,-0.1176605224609375,-0.1288604736328125
1711649888581757700,2.1297578125,-1.0064544677734375,-0.1008148193359375,-0.1478729248046875
1711649888591831800,2.139831787109375,-1.0088653564453125,-0.0878143310546875,-0.1630859375
1711649888601906000,2.149906005859375,-1.006500244140625,-0.0923614501953125,-0.1636505126953125
1711649888611979800,2.159979736328125,-0.998931884765625,-0.09722900390625,-0.145050048828125
1711649888622055000,2.170054931640625,-0.9902191162109375,-0.09002685546875,-0.1265716552734375
1711649888632129000,2.18012890625,-0.9785614013671875,-0.08026123046875,-0.1231231689453125
1711649888642203000,2.190202880859375,-0.965301513671875,-0.076019287109375,-0.126312255859375
1711649888652276700,2.20027685546875,-0.9606781005859375,-0.064910888671875,-0.13525390625
1711649888662350800,2.210350830078125,-0.96600341796875,-0.0500335693359375,-0.1481475830078125
1711649888672424700,2.2204248046875,-0.9714813232421875,-0.041107177734375,-0.158782958984375
1711649888682498800,2.230498779296875,-0.9795074462890625,-0.0412445068359375,-0.16204833984375
1711649888692573000,2.240572998046875,-0.9754486083984375,-0.0370330810546875,-0.1488189697265625
1711649888702646800,2.250646728515625,-0.9844818115234375,-0.037841796875,-0.1376800537109375
1711649888712721000,2.260720947265625,-0.99688720703125,-0.0379638671875,-0.1373443603515625
1711649888722795800,2.270795654296875,-1.004852294921875,-0.0319061279296875,-0.130767822265625
1711649888732870000,2.280869873046875,-1.01171875,-0.0210723876953125,-0.1383209228515625
1711649888742943700,2.29094384765625,-1.018157958984375,-0.0241546630859375,-0.14288330078125
1711649888753017900,2.301017822265625,-1.013702392578125,-0.0281524658203125,-0.1383056640625
1711649888763091700,2.311091796875,-1.007354736328125,-0.0193939208984375,-0.1479034423828125
1711649888773165800,2.321165771484375,-1.006744384765625,-0.0193634033203125,-0.1394195556640625
1711649888783240000,2.331239990234375,-1.0124969482421875,-0.0252532958984375,-0.1145172119140625
1711649888793313800,2.341313720703125,-1.0172271728515625,-0.0220489501953125,-0.1128997802734375
1711649888803388000,2.351387939453125,-1.0223541259765625,-0.020294189453125,-0.1198272705078125
1711649888813462800,2.361462890625,-1.02423095703125,-0.0205841064453125,-0.12786865234375
1711649888823537000,2.371536865234375,-1.0185699462890625,-0.02056884765625,-0.1307220458984375
1711649888833610800,2.38161083984375,-1.00518798828125,-0.02764892578125,-0.1314544677734375
1711649888843684900,2.391684814453125,-0.9921112060546875,-0.038177490234375,-0.1273040771484375
1711649888853758700,2.4017587890625,-0.9850311279296875,-0.041046142578125,-0.11749267578125
1711649888863832300,2.411832275390625,-0.9828643798828125,-0.043182373046875,-0.1057586669921875
1711649888873906400,2.421906494140625,-0.981781005859375,-0.04425048828125,-0.0980072021484375
1711649888883980300,2.431980224609375,-0.9812774658203125,-0.0506591796875,-0.090576171875
1711649888894054400,2.442054443359375,-0.9793701171875,-0.055450439453125,-0.0909881591796875
1711649888904128300,2.452128173828125,-0.985076904296875,-0.0545501708984375,-0.1035919189453125
1711649888914203400,2.462203369140625,-0.988311767578125,-0.0499114990234375,-0.1245880126953125
1711649888924277200,2.47227734375,-0.9845733642578125,-0.0368194580078125,-0.14111328125
1711649888934351400,2.482351318359375,-0.9825897216796875,-0.02581787109375,-0.14947509765625
1711649888944425500,2.492425537109375,-0.9981842041015625,-0.03021240234375,-0.1432342529296875
1711649888954499300,2.502499267578125,-1.0136871337890625,-0.03424072265625,-0.1330718994140625
1711649888964573400,2.512573486328125,-1.0097503662109375,-0.0376739501953125,-0.1195526123046875
1711649888974647300,2.522647216796875,-1.00030517578125,-0.034454345703125,-0.118316650390625
1711649888984721400,2.532721435546875,-0.998687744140625,-0.0299835205078125,-0.1292572021484375
1711649888994795300,2.542795166015625,-1.001678466796875,-0.0339813232421875,-0.1387786865234375
1711649889004869000,2.552869140625,-0.9915313720703125,-0.03985595703125,-0.147430419921875
1711649889014944300,2.5629443359375,-0.9817047119140625,-0.045623779296875,-0.147979736328125
1711649889025018400,2.573018310546875,-0.9759979248046875,-0.046844482421875,-0.1522674560546875
1711649889035092500,2.583092529296875,-0.975616455078125,-0.0509490966796875,-0.15240478515625
1711649889045166300,2.593166259765625,-0.9767913818359375,-0.049041748046875,-0.1488800048828125
1711649889055240400,2.603240478515625,-0.980743408203125,-0.04443359375,-0.140594482421875
1711649889065314300,2.613314208984375,-0.990478515625,-0.0400238037109375,-0.1328887939453125
1711649889075388400,2.623388427734375,-1.0004425048828125,-0.0449676513671875,-0.12835693359375
1711649889085462300,2.633462158203125,-1.0074005126953125,-0.04345703125,-0.1242218017578125
1711649889095536000,2.6435361328125,-1.0172576904296875,-0.045989990234375,-0.1206207275390625
1711649889105610500,2.653610595703125,-1.01617431640625,-0.053009033203125,-0.1243896484375
1711649889115685000,2.66368505859375,-1.0107269287109375,-0.048858642578125,-0.1381683349609375
1711649889125759500,2.673759521484375,-1.01031494140625,-0.035491943359375,-0.1499176025390625
1711649889135833300,2.683833251953125,-1.016143798828125,-0.0376129150390625,-0.14581298828125
1711649889145907500,2.693907470703125,-1.0176849365234375,-0.0478363037109375,-0.1414947509765625
1711649889155981300,2.703981201171875,-1.0152435302734375,-0.0553741455078125,-0.128143310546875
1711649889166055400,2.714055419921875,-1.0138702392578125,-0.0543060302734375,-0.1243896484375
1711649889176129300,2.72412939453125,-1.0168914794921875,-0.0526275634765625,-0.1165924072265625
1711649889186203100,2.734203125,-1.0316925048828125,-0.044921875,-0.1114044189453125
1711649889196277500,2.744277587890625,-1.0558929443359375,-0.0330047607421875,-0.112762451171875
1711649889206351400,2.754351318359375,-1.0879058837890625,-0.0174560546875,-0.1146087646484375
1711649889216426500,2.764426513671875,-1.1040802001953125,-0.01513671875,-0.114776611328125
1711649889226500400,2.774500244140625,-1.098724365234375,-0.0144195556640625,-0.11407470703125
1711649889236574500,2.784574462890625,-1.0849151611328125,-0.0051422119140625,-0.1042327880859375
1711649889246648300,2.7946484375,-1.06866455078125,-0.0048675537109375,-0.0962371826171875
1711649889256722400,2.804722412109375,-1.053985595703125,-0.002838134765625,-0.09844970703125
1711649889266796300,2.81479638671875,-1.0355682373046875,-0.0019683837890625,-0.1068878173828125
1711649889276870100,2.8248701171875,-1.0375518798828125,-0.0114288330078125,-0.119964599609375
1711649889286944500,2.834944580078125,-1.053680419921875,-0.0279388427734375,-0.1348114013671875
1711649889297018400,2.845018310546875,-1.0776214599609375,-0.0580291748046875,-0.1778717041015625
1711649889307092500,2.855092529296875,-1.0756378173828125,-0.06597900390625,-0.186798095703125
1711649889317166300,2.865166259765625,-1.066253662109375,-0.0539703369140625,-0.170684814453125
1711649889327241500,2.875241455078125,-1.0593414306640625,-0.044342041015625,-0.1641845703125
1711649889337315300,2.8853154296875,-1.0484466552734375,-0.0372161865234375,-0.14739990234375
1711649889347389200,2.89538916015625,-1.037017822265625,-0.0319061279296875,-0.121490478515625
1711649889357463300,2.90546337890625,-1.0232696533203125,-0.025482177734375,-0.0966644287109375
1711649889367537200,2.915537109375,-1.006317138671875,-0.0145416259765625,-0.0914764404296875
1711649889377611500,2.925611572265625,-0.9938812255859375,-0.0034637451171875,-0.0962982177734375
1711649889387685400,2.935685302734375,-0.9852142333984375,-0.0023040771484375,-0.0940704345703125
1711649889397759500,2.945759521484375,-0.9824066162109375,-0.010162353515625,-0.0853729248046875
1711649889407833300,2.955833251953125,-0.98712158203125,-0.01226806640625,-0.085113525390625
1711649889417907200,2.9659072265625,-1.00140380859375,-0.0050811767578125,-0.1019287109375
1711649889427982300,2.975982421875,-1.0204315185546875,-0.002227783203125,-0.122039794921875
1711649889438056200,2.98605615234375,-1.0443878173828125,-0.01373291015625,-0.128021240234375
1711649889448130300,2.99613037109375,-1.0685577392578125,-0.021881103515625,-0.1341400146484375
1711649889458204200,3.0062041015625,-1.0881195068359375,-0.0202789306640625,-0.1476593017578125
1711649889468278500,3.016278564453125,-1.09527587890625,-0.0189971923828125,-0.154754638671875
1711649889478352400,3.026352294921875,-1.098052978515625,-0.030059814453125,-0.1411285400390625
1711649889488426500,3.036426513671875,-1.0892791748046875,-0.0378875732421875,-0.1397705078125
1711649889498500400,3.046500244140625,-1.0775299072265625,-0.0473175048828125,-0.132568359375
1711649889508574200,3.05657421875,-1.0630950927734375,-0.060882568359375,-0.11297607421875
1711649889518648300,3.0666484375,-1.0405731201171875,-0.08013916015625,-0.09173583984375
1711649889528723200,3.07672314453125,-1.018402099609375,-0.0863800048828125,-0.082489013671875
1711649889538797300,3.08679736328125,-0.994598388671875,-0.0780181884765625,-0.0928802490234375
1711649889548871200,3.09687109375,-0.9768829345703125,-0.0711517333984375,-0.1052703857421875
1711649889558945500,3.106945556640625,-0.9691162109375,-0.064605712890625,-0.109710693359375
1711649889569019400,3.117019287109375,-0.97479248046875,-0.0647125244140625,-0.103424072265625
1711649889579093200,3.12709326171875,-0.9977569580078125,-0.079132080078125,-0.0891876220703125
1711649889589167400,3.13716748046875,-1.0310821533203125,-0.106842041015625,-0.06512451171875
1711649889599241200,3.1472412109375,-1.0614166259765625,-0.1271209716796875,-0.0513916015625
1711649889609315300,3.1573154296875,-1.084686279296875,-0.1464080810546875,-0.0357666015625
1711649889619389200,3.16738916015625,-1.1002960205078125,-0.1693878173828125,-0.0182342529296875
1711649889629463600,3.177463623046875,-1.105194091796875,-0.181121826171875,-0.011383056640625
1711649889639538200,3.1875380859375,-1.10382080078125,-0.1649169921875,-0.03094482421875
1711649889649612500,3.197612548828125,-1.1122283935546875,-0.0634918212890625,-0.116180419921875
1711649889659686400,3.207686279296875,-1.141265869140625,0.035858154296875,-0.203826904296875
1711649889669760300,3.21776025390625,-1.18756103515625,0.0647125244140625,-0.2113037109375
1711649889679834400,3.22783447265625,-1.2347564697265625,0.0771484375,-0.172821044921875
1711649889689908200,3.237908203125,-1.2721099853515625,0.084014892578125,-0.1089935302734375
1711649889699982300,3.247982421875,-1.28656005859375,0.080352783203125,-0.0306243896484375
1711649889710056200,3.25805615234375,-1.2811279296875,0.0883331298828125,0.0294189453125
1711649889720130600,3.268130615234375,-1.26953125,0.180877685546875,0.0295257568359375
1711649889730204400,3.278204345703125,-1.254241943359375,0.323089599609375,-0.041168212890625
1711649889740278300,3.2882783203125,-1.23541259765625,0.4264373779296875,-0.0930938720703125
1711649889750353400,3.298353515625,-1.2282257080078125,0.490264892578125,-0.101287841796875
1711649889760427300,3.30842724609375,-1.2362060546875,0.50469970703125,-0.0587310791015625
1711649889770501400,3.31850146484375,-1.2382049560546875,0.464691162109375,0.018310546875
1711649889780575200,3.3285751953125,-1.2308807373046875,0.4301910400390625,0.090118408203125
1711649889790649300,3.3386494140625,-1.20294189453125,0.410736083984375,0.137298583984375
1711649889800723200,3.34872314453125,-1.1483306884765625,0.3935089111328125,0.17694091796875
1711649889810797600,3.358797607421875,-1.0711212158203125,0.45556640625,0.132415771484375
1711649889820871400,3.368871337890625,-1.005096435546875,0.54119873046875,0.043853759765625
1711649889830945300,3.3789453125,-1.003692626953125,0.621246337890625,-0.048126220703125
1711649889841019400,3.389019287109375,-1.5449981689453125,0.8961029052734375,-0.1628875732421875
1711649889851093200,3.39909326171875,-1.6734771728515625,0.9934234619140625,-0.033447265625
1711649889861168000,3.409168212890625,-0.972991943359375,0.637847900390625,0.0263824462890625
1711649889871242000,3.419241943359375,-0.90966796875,0.4485931396484375,0.04571533203125
1711649889881316000,3.429316162109375,-1.0170440673828125,0.38873291015625,0.069122314453125
1711649889891390200,3.43939013671875,-0.98870849609375,0.34893798828125,0.06890869140625
1711649889901464000,3.449464111328125,-0.869415283203125,0.32373046875,0.03668212890625
1711649889911538200,3.4595380859375,-0.7747955322265625,0.371795654296875,0.0185089111328125
1711649889921612000,3.469612060546875,-0.7049713134765625,0.5147552490234375,-0.0139923095703125
1711649889931686100,3.47968603515625,-0.64544677734375,0.5924072265625,-0.041778564453125
1711649889941760000,3.489760009765625,-0.6020355224609375,0.5667877197265625,0.0016937255859375
1711649889951834000,3.499834228515625,-0.5776519775390625,0.5165863037109375,0.0753936767578125
1711649889961908200,3.509908203125,-0.5064849853515625,0.45068359375,0.072723388671875
1711649889971983000,3.519983154296875,-0.4284515380859375,0.3698883056640625,0.0594940185546875
1711649889982057200,3.53005712890625,-0.373443603515625,0.3126983642578125,0.06353759765625
1711649889992131000,3.540131103515625,-0.318756103515625,0.29583740234375,0.034881591796875
1711649890002205200,3.550205078125,-0.3245849609375,0.3077545166015625,0.0517578125
1711649890012279000,3.560279052734375,-0.3574676513671875,0.3169403076171875,0.0590362548828125
1711649890022353200,3.570353271484375,-0.3886566162109375,0.305877685546875,0.0597381591796875
1711649890032427000,3.580427001953125,-0.4266357421875,0.2800140380859375,0.0545654296875
1711649890042500900,3.5905009765625,-0.4783172607421875,0.248077392578125,0.057373046875
1711649890052575200,3.6005751953125,-0.5543365478515625,0.22393798828125,0.057373046875
1711649890062649000,3.610649169921875,-0.6175689697265625,0.1874847412109375,0.0814056396484375
1711649890072723200,3.62072314453125,-0.660247802734375,0.1420745849609375,0.0899200439453125
1711649890082797000,3.630797119140625,-0.695770263671875,0.0869903564453125,0.073822021484375
1711649890092872200,3.6408720703125,-0.735595703125,0.03955078125,0.06671142578125
1711649890102946000,3.650946044921875,-0.7494964599609375,-0.004150390625,0.0901947021484375
1711649890113020200,3.661020263671875,-0.75152587890625,-0.0532073974609375,0.1033172607421875
1711649890123094000,3.671093994140625,-0.7519989013671875,-0.0952301025390625,0.118804931640625
1711649890133167900,3.68116796875,-0.7799530029296875,-0.1211700439453125,0.1506500244140625
1711649890143242200,3.6912421875,-0.835784912109375,-0.146270751953125,0.155670166015625
1711649890153316000,3.701316162109375,-0.8871307373046875,-0.1659088134765625,0.126007080078125
1711649890163390200,3.71139013671875,-0.941162109375,-0.1766204833984375,0.0697479248046875
1711649890173464000,3.721464111328125,-0.986358642578125,-0.189239501953125,0.028839111328125
1711649890183538200,3.7315380859375,-1.0066375732421875,-0.1883544921875,0.027923583984375
1711649890193612000,3.741612060546875,-1.0046234130859375,-0.2009124755859375,0.02325439453125
1711649890203687200,3.751687255859375,-0.9950714111328125,-0.2215423583984375,0.0239410400390625
1711649890213761000,3.761760986328125,-0.981689453125,-0.2493896484375,0.0285491943359375
1711649890223835000,3.7718349609375,-0.9430999755859375,-0.2838897705078125,0.0092926025390625
1711649890233909200,3.7819091796875,-0.908477783203125,-0.315460205078125,0.02606201171875
1711649890243983000,3.791983154296875,-0.8806304931640625,-0.3148345947265625,0.0388641357421875
1711649890254057200,3.80205712890625,-0.86431884765625,-0.2681427001953125,0.03289794921875
1711649890264131000,3.812131103515625,-0.876251220703125,-0.2093353271484375,0.0044403076171875
1711649890274205000,3.822204833984375,-0.89697265625,-0.176025390625,-0.0157928466796875
1711649890284279000,3.832279052734375,-0.9119110107421875,-0.15264892578125,-0.017974853515625
1711649890294353000,3.842352783203125,-0.9296112060546875,-0.1466522216796875,-0.0058135986328125
1711649890304427300,3.85242724609375,-0.94696044921875,-0.1410980224609375,0.0133514404296875
1711649890314502000,3.862501953125,-0.9866180419921875,-0.1168212890625,0.030120849609375
1711649890324576300,3.872576171875,-1.077484130859375,-0.085479736328125,0.0640106201171875
1711649890334650000,3.882650146484375,-1.2137603759765625,-0.06976318359375,0.1055145263671875
1711649890344724200,3.89272412109375,-1.1895599365234375,-0.0380859375,0.093475341796875
1711649890354798000,3.902798095703125,-1.1007232666015625,0.01318359375,0.0181884765625
1711649890364872000,3.912871826171875,-1.1230010986328125,0.0616455078125,-0.03485107421875
1711649890374946000,3.922946044921875,-1.1052093505859375,0.1080780029296875,-0.0247344970703125
1711649890385020000,3.93302001953125,-1.078125,0.15142822265625,-0.017425537109375
1711649890395094300,3.94309423828125,-1.062835693359375,0.1792755126953125,-0.024017333984375
1711649890405168000,3.953168212890625,-1.05096435546875,0.186553955078125,0.0102386474609375
1711649890415242200,3.9632421875,-1.04388427734375,0.1843414306640625,0.1006927490234375
1711649890425317000,3.973317138671875,-1.043060302734375,0.184539794921875,0.172332763671875
1711649890435391200,3.98339111328125,-1.043212890625,0.200775146484375,0.1956787109375
1711649890445465000,3.993465087890625,-1.044036865234375,0.2252655029296875,0.175384521484375
1711649890455539000,4.0035390625,-1.042816162109375,0.2185211181640625,0.0799713134765625
1711649890465613000,4.013613037109375,-1.035430908203125,0.2092437744140625,0.0017852783203125
1711649890475687000,4.02368701171875,-1.0589752197265625,0.20599365234375,-0.0462646484375
1711649890485761300,4.03376123046875,-1.1005096435546875,0.1817626953125,-0.076995849609375
1711649890495835100,4.043835205078125,-1.0814056396484375,0.1602630615234375,-0.0996551513671875
1711649890505909200,4.0539091796875,-1.005035400390625,0.1504669189453125,-0.1127777099609375
1711649890515983000,4.063983154296875,-0.959564208984375,0.1365814208984375,-0.106903076171875
1711649890526057000,4.074056884765625,-0.951995849609375,0.1208038330078125,-0.0722808837890625
1711649890536131000,4.084131103515625,-0.933441162109375,0.127593994140625,-0.0326080322265625
1711649890546206000,4.0942060546875,-0.9145660400390625,0.1384429931640625,-0.00482177734375
1711649890556280000,4.104280029296875,-0.9207763671875,0.1417083740234375,0.00830078125
1711649890566354000,4.11435400390625,-0.9438934326171875,0.140869140625,0.0067138671875
1711649890576428300,4.12442822265625,-0.962646484375,0.1365203857421875,0.002166748046875
1711649890586502100,4.134502197265625,-0.9769744873046875,0.1278839111328125,0.00701904296875
1711649890596576000,4.144575927734375,-1.00067138671875,0.130615234375,0.0081787109375
1711649890606650000,4.154650146484375,-1.017608642578125,0.1416168212890625,-0.0008697509765625
1711649890616724000,4.164723876953125,-1.02423095703125,0.1406402587890625,-0.003570556640625
1711649890626798000,4.174798095703125,-1.0281982421875,0.1294708251953125,-0.0068817138671875
1711649890636872000,4.184871826171875,-1.0237579345703125,0.116058349609375,-0.0068817138671875
1711649890646946300,4.1949462890625,-1.014739990234375,0.1082305908203125,-0.00274658203125
1711649890657020200,4.205020263671875,-0.9855194091796875,0.102630615234375,-0.004547119140625
1711649890667095300,4.21509521484375,-0.958282470703125,0.0986175537109375,-0.0065155029296875
1711649890677169200,4.225169189453125,-0.946929931640625,0.0916290283203125,0.001953125
1711649890687243000,4.235242919921875,-0.9532470703125,0.0871429443359375,0.016326904296875
1711649890697317000,4.245317138671875,-0.9737396240234375,0.09051513671875,0.032135009765625
1711649890707391000,4.255390869140625,-0.9860687255859375,0.0934295654296875,0.0436248779296875
1711649890717465000,4.265465087890625,-0.9967041015625,0.0953216552734375,0.0506439208984375
1711649890727539000,4.2755390625,-1.00640869140625,0.1012420654296875,0.052215576171875
1711649890737613300,4.28561328125,-1.00762939453125,0.107696533203125,0.0471343994140625
1711649890747687200,4.295687255859375,-0.999267578125,0.1105194091796875,0.0287017822265625
1711649890757761000,4.305760986328125,-0.9879608154296875,0.11151123046875,0.009002685546875
1711649890767835100,4.315835205078125,-0.99359130859375,0.1060943603515625,0.0042724609375
1711649890777909000,4.325908935546875,-1.0035858154296875,0.0971527099609375,0.009246826171875
1711649890787984100,4.335984130859375,-1.001068115234375,0.0957489013671875,0.0179901123046875
1711649890798058000,4.34605810546875,-0.9990692138671875,0.097412109375,0.028594970703125
1711649890808132000,4.356132080078125,-1.000732421875,0.09759521484375,0.03802490234375
1711649890818206000,4.3662060546875,-0.99993896484375,0.0985107421875,0.0456085205078125
1711649890828280000,4.376280029296875,-0.9935760498046875,0.0970001220703125,0.04949951171875
1711649890838354200,4.386354248046875,-0.9902191162109375,0.092803955078125,0.0481414794921875
1711649890848428000,4.396427978515625,-0.997711181640625,0.0880279541015625,0.0425567626953125
1711649890858502100,4.406502197265625,-0.9969329833984375,0.082763671875,0.0308685302734375
1711649890868576300,4.416576171875,-0.990753173828125,0.071075439453125,0.0185546875
1711649890878650000,4.426650146484375,-0.992095947265625,0.0668182373046875,0.0096588134765625
1711649890888724200,4.43672412109375,-0.995361328125,0.064727783203125,0.0046234130859375
1711649890898799000,4.446799072265625,-0.9914398193359375,0.061553955078125,-0.000152587890625
1711649890908873200,4.456873291015625,-0.988739013671875,0.060882568359375,-0.003265380859375
1711649890918947300,4.466947265625,-0.9846649169921875,0.061492919921875,-0.004669189453125
1711649890929021400,4.477021484375,-0.9860992431640625,0.0621490478515625,-0.0063323974609375
1711649890939095300,4.48709521484375,-0.988311767578125,0.0612945556640625,-0.0027313232421875
1711649890949169200,4.497169189453125,-0.9917755126953125,0.0621490478515625,0.0023040771484375
1711649890959243300,4.5072431640625,-0.99237060546875,0.063934326171875,0.0082244873046875
1711649890969317000,4.517317138671875,-0.9901123046875,0.06866455078125,0.0118865966796875
1711649890979391200,4.52739111328125,-0.9936981201171875,0.069976806640625,0.017242431640625
1711649890989465300,4.53746533203125,-0.9961700439453125,0.0685882568359375,0.0200347900390625
1711649890999539200,4.547539306640625,-0.997711181640625,0.0655975341796875,0.021331787109375
1711649891009613300,4.55761328125,-0.9967498779296875,0.0614013671875,0.0229034423828125
1711649891019688400,4.5676884765625,-0.9944610595703125,0.059417724609375,0.027130126953125
1711649891029762300,4.57776220703125,-0.9913787841796875,0.0586395263671875,0.0288848876953125
1711649891039836200,4.587836181640625,-0.9863739013671875,0.061431884765625,0.027923583984375
1711649891049910300,4.59791015625,-0.9813232421875,0.0637664794921875,0.024871826171875
1711649891059984100,4.607984130859375,-0.9816436767578125,0.07147216796875,0.0232086181640625
1711649891070058200,4.618058349609375,-0.987457275390625,0.076019287109375,0.019378662109375
1711649891080132400,4.62813232421875,-0.990692138671875,0.080230712890625,0.0158538818359375
1711649891090206200,4.638206298828125,-0.996002197265625,0.080841064453125,0.012359619140625
1711649891100280300,4.6482802734375,-0.998382568359375,0.0809326171875,0.010498046875
1711649891110354200,4.658354248046875,-1.003082275390625,0.079986572265625,0.0127716064453125
1711649891120428300,4.66842822265625,-1.003173828125,0.0803375244140625,0.012786865234375
1711649891130502100,4.678502197265625,-1.001953125,0.079620361328125,0.0137481689453125
1711649891140577300,4.688577392578125,-1.001861572265625,0.0796356201171875,0.0140533447265625
1711649891150651100,4.698651123046875,-0.9978179931640625,0.08056640625,0.0143280029296875
1711649891160725200,4.708725341796875,-0.996429443359375,0.081207275390625,0.01605224609375
1711649891170799400,4.71879931640625,-0.9962921142578125,0.0841217041015625,0.0131072998046875
1711649891180873200,4.728873291015625,-0.9956512451171875,0.0853118896484375,0.008880615234375
1711649891190947300,4.738947265625,-0.9971160888671875,0.0831756591796875,0.0055084228515625
1711649891201021200,4.749021240234375,-1.0023040771484375,0.0822296142578125,0.0045166015625
1711649891211095300,4.75909521484375,-1.00628662109375,0.08013916015625,0.0077972412109375
1711649891221169200,4.769169189453125,-1.0067596435546875,0.0767822265625,0.009246826171875
1711649891231243300,4.7792431640625,-1.006011962890625,0.0740203857421875,0.012603759765625
1711649891241317400,4.7893173828125,-1.003265380859375,0.0716400146484375,0.0139617919921875
1711649891251391200,4.79939111328125,-1.0033721923828125,0.070953369140625,0.020965576171875
1711649891261466400,4.80946630859375,-1.001708984375,0.0689849853515625,0.0170745849609375
1711649891271540200,4.819540283203125,-0.99407958984375,0.0688323974609375,0.014495849609375
1711649891281614300,4.8296142578125,-0.98779296875,0.068023681640625,0.0079193115234375
1711649891291688200,4.839688232421875,-0.98822021484375,0.0657501220703125,0.0028076171875
1711649891301762300,4.84976220703125,-0.985595703125,0.065399169921875,0.0006256103515625
1711649891311836200,4.859836181640625,-0.98394775390625,0.0648651123046875,0.0013885498046875
1711649891321910000,4.869909912109375,-0.98858642578125,0.063018798828125,0.0009918212890625
1711649891331984400,4.879984375,-0.9895782470703125,0.0660247802734375,0.003326416015625
1711649891342058200,4.890058349609375,-0.9898529052734375,0.068695068359375,0.0043792724609375
1711649891352132400,4.90013232421875,-0.9942169189453125,0.0738372802734375,0.006591796875
1711649891362206200,4.910206298828125,-0.995208740234375,0.075775146484375,0.0034637451171875
1711649891372280300,4.9202802734375,-0.992156982421875,0.077911376953125,-0.00030517578125
1711649891382355200,4.930355224609375,-0.995025634765625,0.0805511474609375,-0.0027313232421875
1711649891392429300,4.94042919921875,-0.9949493408203125,0.08447265625,-0.008331298828125
1711649891402503200,4.950503173828125,-0.995758056640625,0.0856475830078125,-0.0107574462890625
1711649891412577300,4.960577392578125,-0.9963836669921875,0.0854949951171875,-0.003631591796875
1711649891422651400,4.9706513671875,-0.995269775390625,0.084564208984375,0.000579833984375
1711649891432725200,4.980725341796875,-0.998199462890625,0.084716796875,0.004638671875
1711649891442799400,4.99079931640625,-0.995819091796875,0.0826568603515625,0.0079803466796875
1711649891452873200,5.000873291015625,-0.9987030029296875,0.084564208984375,0.010040283203125
1711649891462947300,5.010947265625,-1.0001678466796875,0.0874176025390625,0.01092529296875
1711649891473021200,5.021021240234375,-0.9926300048828125,0.0886993408203125,0.011627197265625
1711649891483095300,5.03109521484375,-0.9947967529296875,0.089202880859375,0.0082855224609375
1711649891493169400,5.04116943359375,-0.9961090087890625,0.090179443359375,0.00274658203125
1711649891503243300,5.0512431640625,-0.991943359375,0.088043212890625,-0.001678466796875
1711649891513318400,5.061318359375,-0.998199462890625,0.0876922607421875,0.0013427734375
1711649891523392300,5.071392333984375,-1.001953125,0.087249755859375,0.0084075927734375
1711649891533466400,5.08146630859375,-0.9972381591796875,0.085357666015625,0.013916015625
1711649891543540200,5.091540283203125,-0.99859619140625,0.084381103515625,0.014862060546875
1711649891553614000,5.101614013671875,-0.9976806640625,0.0845489501953125,0.0157318115234375
1711649891563688200,5.111688232421875,-0.9940338134765625,0.0840301513671875,0.0145721435546875
1711649891573762300,5.12176220703125,-0.9877471923828125,0.082489013671875,0.0136566162109375
1711649891583836400,5.13183642578125,-0.978729248046875,0.08404541015625,0.0098419189453125
1711649891593910300,5.14191015625,-0.981292724609375,0.086334228515625,0.0076751708984375
1711649891603984400,5.151984375,-0.9823760986328125,0.0871429443359375,0.0084228515625
1711649891614058200,5.162058349609375,-0.989227294921875,0.088714599609375,0.00823974609375
1711649891624132000,5.172132080078125,-1.003662109375,0.0928802490234375,0.008575439453125
1711649891634207200,5.182207275390625,-1.00579833984375,0.0926055908203125,0.0128326416015625
1711649891644281000,5.192281005859375,-1.0082855224609375,0.0907440185546875,0.0162200927734375
1711649891654355200,5.202355224609375,-1.0087127685546875,0.0901947021484375,0.0199432373046875
1711649891664429300,5.21242919921875,-1.0027618408203125,0.0897216796875,0.0232696533203125
1711649891674503400,5.22250341796875,-0.998931884765625,0.090057373046875,0.0215301513671875
1711649891684577300,5.232577392578125,-0.992431640625,0.090972900390625,0.0222320556640625
1711649891694651400,5.2426513671875,-0.9905548095703125,0.0882415771484375,0.0185089111328125
1711649891704725200,5.252725341796875,-0.9925689697265625,0.0853729248046875,0.0169525146484375
1711649891714799000,5.262799072265625,-0.9952392578125,0.0822601318359375,0.02178955078125
1711649891724873200,5.272873291015625,-0.9992523193359375,0.081939697265625,0.0297393798828125
1711649891734947300,5.282947265625,-0.9987030029296875,0.08251953125,0.0368194580078125
1711649891745021400,5.293021484375,-0.9967041015625,0.0833282470703125,0.0417327880859375
1711649891755095300,5.30309521484375,-0.99566650390625,0.07769775390625,0.045562744140625
1711649891765170400,5.31317041015625,-0.9899749755859375,0.0748443603515625,0.0452728271484375
1711649891775244300,5.323244384765625,-0.9852752685546875,0.0715484619140625,0.043487548828125
1711649891785318100,5.333318115234375,-0.981109619140625,0.071136474609375,0.035980224609375
1711649891795392300,5.343392333984375,-0.9775543212890625,0.0736541748046875,0.0339813232421875
1711649891805466000,5.353466064453125,-0.9730987548828125,0.076904296875,0.03363037109375
1711649891815540200,5.363540283203125,-0.9776458740234375,0.081085205078125,0.036163330078125
1711649891825614300,5.3736142578125,-0.9856719970703125,0.0857696533203125,0.0382080078125
1711649891835688400,5.3836884765625,-0.9945068359375,0.0911102294921875,0.0406646728515625
1711649891845762300,5.39376220703125,-1.00634765625,0.0920257568359375,0.038604736328125
1711649891855836200,5.403836181640625,-1.008209228515625,0.0925445556640625,0.0361328125
1711649891865910500,5.41391064453125,-1.01165771484375,0.0934906005859375,0.0345458984375
1711649891875984400,5.423984375,-1.009765625,0.0893707275390625,0.0319366455078125
1711649891886058500,5.43405859375,-1.0023956298828125,0.08502197265625,0.0290069580078125
1711649891896132400,5.44413232421875,-0.9991912841796875,0.0805816650390625,0.0260009765625
1711649891906206500,5.45420654296875,-0.9893951416015625,0.0778961181640625,0.023895263671875
1711649891916280600,5.464280517578125,-0.9818115234375,0.0754241943359375,0.019500732421875
1711649891926354400,5.4743544921875,-0.98004150390625,0.074371337890625,0.0093841552734375
1711649891936428500,5.484428466796875,-0.9795989990234375,0.0750274658203125,-0.0001983642578125
1711649891946502400,5.49450244140625,-0.9857025146484375,0.0787506103515625,-0.0090484619140625
1711649891956576300,5.504576171875,-0.993743896484375,0.0823211669921875,-0.01849365234375
1711649891966650400,5.514650390625,-0.9960479736328125,0.0856781005859375,-0.022064208984375
1711649891976724500,5.524724365234375,-0.999786376953125,0.0916595458984375,-0.021636962890625
1711649891986798600,5.534798583984375,-1.0045623779296875,0.097198486328125,-0.0218658447265625
1711649891996873500,5.54487353515625,-1.0045623779296875,0.0977935791015625,-0.0235443115234375
1711649892006947600,5.554947509765625,-1.006805419921875,0.0970001220703125,-0.0270843505859375
1711649892017021400,5.565021484375,-1.00897216796875,0.0954742431640625,-0.02545166015625
1711649892027095600,5.575095458984375,-1.0058135986328125,0.0931854248046875,-0.0166015625
1711649892037169400,5.58516943359375,-1.0028533935546875,0.0915679931640625,-0.010223388671875
1711649892047243300,5.5952431640625,-0.99749755859375,0.0876007080078125,-0.004913330078125
1711649892057317400,5.6053173828125,-0.99456787109375,0.084197998046875,-0.0017242431640625
1711649892067391500,5.6153916015625,-0.9937896728515625,0.082733154296875,0.0019378662109375
1711649892077465600,5.625465576171875,-0.9935150146484375,0.0832061767578125,0.00897216796875
1711649892087539500,5.63553955078125,-0.9926605224609375,0.0828094482421875,0.016265869140625
1711649892097613600,5.645613525390625,-0.9914398193359375,0.08294677734375,0.0255279541015625
1711649892107687400,5.6556875,-0.9940643310546875,0.084381103515625,0.0338287353515625
1711649892117762600,5.665762451171875,-0.98822021484375,0.0849761962890625,0.0392303466796875
1711649892127836400,5.67583642578125,-0.986175537109375,0.0882110595703125,0.0459747314453125
1711649892137910300,5.68591015625,-0.9855804443359375,0.0914459228515625,0.04620361328125
1711649892147984400,5.695984375,-0.984588623046875,0.0955352783203125,0.0426177978515625
1711649892158058500,5.70605859375,-0.9875335693359375,0.094970703125,0.035369873046875
1711649892168132600,5.716132568359375,-0.9937744140625,0.09521484375,0.030517578125
1711649892178206500,5.72620654296875,-0.99627685546875,0.092803955078125,0.0212860107421875
1711649892188280300,5.7362802734375,-0.9993743896484375,0.0911712646484375,0.0125885009765625
1711649892198354400,5.7463544921875,-0.998138427734375,0.090850830078125,0.0078277587890625
1711649892208428300,5.75642822265625,-0.9980926513671875,0.089202880859375,0.008819580078125
1711649892218502400,5.76650244140625,-0.99444580078125,0.0904693603515625,0.0077056884765625
1711649892228576500,5.776576416015625,-0.9892578125,0.09039306640625,0.007598876953125
1711649892238650600,5.786650634765625,-0.9905853271484375,0.0909881591796875,0.005462646484375
1711649892248724500,5.796724365234375,-0.990875244140625,0.09185791015625,0.002410888671875
1711649892258799600,5.806799560546875,-0.988922119140625,0.095123291015625,0.002197265625
1711649892268873500,5.81687353515625,-0.990875244140625,0.097503662109375,0.0010833740234375
1711649892278947300,5.826947265625,-0.9953155517578125,0.099639892578125,0.0005340576171875
1711649892289021400,5.837021484375,-0.997772216796875,0.10009765625,0.0032958984375
1711649892299095300,5.84709521484375,-1.0012664794921875,0.100372314453125,0.0059356689453125
1711649892309169400,5.85716943359375,-1.0050506591796875,0.1016082763671875,0.0119476318359375
1711649892319243500,5.867243408203125,-1.0027618408203125,0.1005401611328125,0.0151519775390625
1711649892329317600,5.877317626953125,-1.00238037109375,0.097137451171875,0.0178985595703125
1711649892339391500,5.8873916015625,-0.9997711181640625,0.091552734375,0.0182647705078125
1711649892349466600,5.897466552734375,-0.9962615966796875,0.0873565673828125,0.0163116455078125
1711649892359540500,5.90754052734375,-0.9893341064453125,0.0832672119140625,0.012603759765625
1711649892369614300,5.9176142578125,-0.9837646484375,0.081939697265625,0.012115478515625
1711649892379688400,5.9276884765625,-0.980194091796875,0.0809326171875,0.0117950439453125
1711649892389762300,5.93776220703125,-0.97845458984375,0.0809326171875,0.0114288330078125
1711649892399836400,5.94783642578125,-0.98291015625,0.0860595703125,0.012481689453125
1711649892409910500,5.95791064453125,-0.99151611328125,0.091033935546875,0.0090789794921875
1711649892419984600,5.967984619140625,-0.9961700439453125,0.0953826904296875,0.005126953125
1711649892430058500,5.97805859375,-1.000701904296875,0.0984344482421875,0.00030517578125
1711649892440132400,5.98813232421875,-1.00323486328125,0.1024932861328125,-0.0028533935546875
1711649892450206500,5.99820654296875,-1.0081939697265625,0.099884033203125,-0.0057525634765625
1711649892460280300,6.0082802734375,-1.009002685546875,0.0986480712890625,-0.0038299560546875
1711649892470354400,6.0183544921875,-1.0027923583984375,0.097686767578125,-0.000701904296875
1711649892480428500,6.028428466796875,-0.99530029296875,0.0952301025390625,0.0045318603515625
1711649892490503400,6.03850341796875,-0.990692138671875,0.095947265625,0.008087158203125
1711649892500577500,6.04857763671875,-0.9853973388671875,0.096954345703125,0.009185791015625
1711649892510651400,6.0586513671875,-0.9840240478515625,0.0985107421875,0.013397216796875
1711649892520725500,6.0687255859375,-0.9867095947265625,0.099853515625,0.01043701171875
1711649892530799400,6.07879931640625,-0.99169921875,0.1022491455078125,0.0067596435546875
1711649892540873500,6.08887353515625,-0.9921417236328125,0.1027374267578125,0.0064849853515625
1711649892550947300,6.098947265625,-0.99420166015625,0.103485107421875,0.0058746337890625
1711649892561021400,6.109021484375,-0.9952850341796875,0.10723876953125,0.009490966796875
1711649892571095600,6.119095458984375,-0.9959869384765625,0.1074371337890625,0.0107421875
1711649892581169400,6.12916943359375,-0.9970855712890625,0.1084747314453125,0.013153076171875
1711649892591243500,6.139243408203125,-0.9960174560546875,0.1109771728515625,0.0138397216796875
1711649892601317400,6.1493173828125,-0.9980621337890625,0.1120452880859375,0.01580810546875
1711649892611392500,6.159392578125,-0.9954681396484375,0.112060546875,0.017181396484375
1711649892621466400,6.16946630859375,-0.993408203125,0.10931396484375,0.0179901123046875
1711649892631540500,6.17954052734375,-0.995635986328125,0.1102142333984375,0.014312744140625
1711649892641614300,6.1896142578125,-0.9943389892578125,0.106597900390625,0.0091094970703125
1711649892651688400,6.1996884765625,-0.995452880859375,0.1011199951171875,0.0034942626953125
1711649892661762600,6.209762451171875,-0.99688720703125,0.0970611572265625,-0.0035400390625
1711649892671836400,6.21983642578125,-0.9960479736328125,0.0963897705078125,-0.0086517333984375
1711649892681910500,6.22991064453125,-0.991302490234375,0.0941162109375,-0.01129150390625
1711649892691984400,6.239984375,-0.990875244140625,0.0947418212890625,-0.0083465576171875
1711649892702058500,6.25005859375,-0.9922332763671875,0.099151611328125,0.0005340576171875
1711649892712132400,6.26013232421875,-0.9948883056640625,0.102142333984375,0.0072784423828125
1711649892722206500,6.27020654296875,-0.9972076416015625,0.10491943359375,0.0101165771484375
1711649892732280600,6.280280517578125,-0.9936370849609375,0.1063079833984375,0.015777587890625
1711649892742354400,6.2903544921875,-0.996337890625,0.1083221435546875,0.0146484375
1711649892752429600,6.3004296875,-0.996490478515625,0.108062744140625,0.0108795166015625
1711649892762503400,6.31050341796875,-0.9935302734375,0.101531982421875,0.0071258544921875
1711649892772577500,6.32057763671875,-0.992828369140625,0.09869384765625,0.0042877197265625
1711649892782651400,6.3306513671875,-0.993804931640625,0.0964508056640625,0.00421142578125
1711649892792725500,6.3407255859375,-0.992340087890625,0.0985260009765625,0.005889892578125
1711649892802799400,6.35079931640625,-0.9916229248046875,0.0970001220703125,0.01043701171875
1711649892812873500,6.36087353515625,-0.993927001953125,0.09661865234375,0.0093536376953125
1711649892822947600,6.370947509765625,-0.998046875,0.094635009765625,0.0092010498046875
1711649892833021400,6.381021484375,-0.99853515625,0.090911865234375,0.010467529296875
1711649892843095600,6.391095458984375,-0.994110107421875,0.0888519287109375,0.0114288330078125
1711649892853169400,6.40116943359375,-0.9904937744140625,0.0842132568359375,0.0108642578125
1711649892863243500,6.411243408203125,-0.988677978515625,0.0819854736328125,0.010528564453125
1711649892873317600,6.421317626953125,-0.9854278564453125,0.0805206298828125,0.01116943359375
1711649892883391700,6.431391845703125,-0.9841156005859375,0.0782470703125,0.0126190185546875
1711649892893466600,6.441466552734375,-0.98394775390625,0.08154296875,0.0172271728515625
1711649892903540700,6.451540771484375,-0.985992431640625,0.08575439453125,0.018524169921875
1711649892913614600,6.461614501953125,-0.9900970458984375,0.0881805419921875,0.0189666748046875
1711649892923688700,6.471688720703125,-0.99322509765625,0.093048095703125,0.01739501953125
1711649892933762600,6.481762451171875,-0.9964752197265625,0.0960693359375,0.014312744140625
1711649892943836700,6.491836669921875,-1.0004425048828125,0.0982513427734375,0.0118255615234375
1711649892953910500,6.50191064453125,-0.9995574951171875,0.0994415283203125,0.0119171142578125
1711649892963984600,6.511984619140625,-0.9976959228515625,0.099853515625,0.014862060546875
1711649892974058800,6.522058837890625,-0.99505615234375,0.0990142822265625,0.0179595947265625
1711649892984132600,6.532132568359375,-0.9931182861328125,0.100616455078125,0.0177459716796875
1711649892994206700,6.542206787109375,-0.99517822265625,0.1020965576171875,0.01708984375
1711649893004280600,6.552280517578125,-0.996490478515625,0.101470947265625,0.015838623046875
1711649893014354700,6.562354736328125,-0.994659423828125,0.101470947265625,0.0122833251953125
1711649893024429600,6.5724296875,-0.995819091796875,0.1028594970703125,0.0100250244140625
1711649893034503700,6.582503662109375,-0.993743896484375,0.10516357421875,0.006591796875
1711649893044577500,6.59257763671875,-0.992156982421875,0.1021728515625,0.0025177001953125
1711649893054651600,6.602651611328125,-0.9953155517578125,0.1020050048828125,0.0004730224609375
1711649893064725800,6.612725830078125,-0.995208740234375,0.1013336181640625,-0.002655029296875
1711649893074799600,6.622799560546875,-0.9977569580078125,0.1027374267578125,0.003570556640625
1711649893084873700,6.632873779296875,-0.9993896484375,0.10247802734375,0.0171051025390625
1711649893094947600,6.642947509765625,-1.00152587890625,0.1013336181640625,0.025909423828125
1711649893105021700,6.653021728515625,-1.0004730224609375,0.10028076171875,0.03021240234375
1711649893115095600,6.663095458984375,-0.996917724609375,0.099212646484375,0.031951904296875
1711649893125169400,6.67316943359375,-0.991058349609375,0.0958251953125,0.03326416015625
1711649893135243800,6.683243896484375,-0.9902496337890625,0.0933074951171875,0.03369140625
1711649893145317600,6.693317626953125,-0.989959716796875,0.090850830078125,0.0345611572265625
1711649893155391700,6.703391845703125,-0.988250732421875,0.0836944580078125,0.0356903076171875
1711649893165465600,6.713465576171875,-0.98858642578125,0.081329345703125,0.03643798828125
1711649893175540700,6.723540771484375,-0.991912841796875,0.081024169921875,0.038604736328125
1711649893185614600,6.733614501953125,-0.99261474609375,0.0797882080078125,0.03985595703125
1711649893195688700,6.743688720703125,-0.9938812255859375,0.0811920166015625,0.043426513671875
1711649893205762600,6.753762451171875,-0.9962615966796875,0.085479736328125,0.0423126220703125
1711649893215836400,6.76383642578125,-0.996795654296875,0.0897216796875,0.039825439453125
1711649893225910800,6.773910888671875,-0.9940948486328125,0.0871734619140625,0.0366363525390625
1711649893235984600,6.783984619140625,-0.993560791015625,0.0873565673828125,0.0300140380859375
1711649893246058800,6.794058837890625,-0.9934234619140625,0.08892822265625,0.02667236328125
1711649893256132600,6.804132568359375,-0.9909820556640625,0.086883544921875,0.02349853515625
1711649893266206700,6.814206787109375,-0.9896392822265625,0.0870513916015625,0.0231781005859375
1711649893276280600,6.824280517578125,-0.9893341064453125,0.087677001953125,0.0243682861328125
1711649893286354400,6.8343544921875,-0.992156982421875,0.0891265869140625,0.0257415771484375
1711649893296428800,6.8444287109375,-0.99591064453125,0.09100341796875,0.02783203125
1711649893306502700,6.854502685546875,-0.9984283447265625,0.0931854248046875,0.023681640625
1711649893316577800,6.864577880859375,-0.9963226318359375,0.093414306640625,0.022369384765625
1711649893326651600,6.874651611328125,-0.99603271484375,0.095611572265625,0.0206756591796875
1711649893336725800,6.884725830078125,-0.99481201171875,0.0979766845703125,0.017608642578125
1711649893346799600,6.894799560546875,-0.992919921875,0.0995025634765625,0.0147552490234375
1711649893356873500,6.90487353515625,-0.9889678955078125,0.1007843017578125,0.017730712890625
1711649893366947600,6.914947509765625,-0.9905548095703125,0.1002655029296875,0.02081298828125
1711649893377021400,6.925021484375,-0.9939422607421875,0.1034088134765625,0.0214385986328125
1711649893387095800,6.935095703125,-0.9968109130859375,0.1060791015625,0.024627685546875
1711649893397169700,6.945169677734375,-0.998809814453125,0.10614013671875,0.0249176025390625
1711649893407243800,6.955243896484375,-1.0000762939453125,0.1051025390625,0.0202178955078125
1711649893417317600,6.965317626953125,-1.0017242431640625,0.10394287109375,0.018463134765625
1711649893427391500,6.9753916015625,-1.0008697509765625,0.0998077392578125,0.016815185546875
1711649893437465600,6.985465576171875,-0.99737548828125,0.095123291015625,0.0195159912109375
1711649893447539500,6.99553955078125,-0.993804931640625,0.088836669921875,0.0184326171875
1711649893457614600,7.005614501953125,-0.9876556396484375,0.0896759033203125,0.0180206298828125
1711649893467688400,7.0156884765625,-0.982574462890625,0.0901641845703125,0.0193634033203125
1711649893477762800,7.0257626953125,-0.9819488525390625,0.091705322265625,0.0205841064453125
1711649893487836700,7.035836669921875,-0.985687255859375,0.0940093994140625,0.0199432373046875
1711649893497910800,7.045910888671875,-0.9913177490234375,0.0971221923828125,0.0183868408203125
1711649893507984600,7.055984619140625,-0.998046875,0.099609375,0.016998291015625
1711649893518058500,7.06605859375,-1.0024261474609375,0.102142333984375,0.01458740234375
1711649893528132600,7.076132568359375,-1.004638671875,0.104248046875,0.0166168212890625
1711649893538206500,7.08620654296875,-1.0085601806640625,0.10406494140625,0.01654052734375
1711649893548280800,7.09628076171875,-1.0046234130859375,0.1018829345703125,0.0160980224609375
1711649893558354700,7.106354736328125,-0.997528076171875,0.099578857421875,0.0186767578125
1711649893568428500,7.116428466796875,-0.9928741455078125,0.09820556640625,0.019287109375
1711649893578502700,7.126502685546875,-0.98956298828125,0.0970611572265625,0.0166473388671875
1711649893588576500,7.136576416015625,-0.9882354736328125,0.095428466796875,0.0160675048828125
1711649893598651600,7.146651611328125,-0.9859466552734375,0.096343994140625,0.017730712890625
1711649893608725500,7.1567255859375,-0.9882049560546875,0.0966949462890625,0.0200347900390625
1711649893618799600,7.166799560546875,-0.9920654296875,0.098358154296875,0.0216827392578125
1711649893628873500,7.17687353515625,-0.9945068359375,0.0966796875,0.02398681640625
1711649893638947800,7.18694775390625,-0.99700927734375,0.0945587158203125,0.027740478515625
1711649893649021700,7.197021728515625,-0.99932861328125,0.0914459228515625,0.0321197509765625
1711649893659095600,7.207095458984375,-0.9962310791015625,0.09014892578125,0.0338897705078125
1711649893669169700,7.217169677734375,-0.992279052734375,0.08807373046875,0.0358123779296875
1711649893679243500,7.227243408203125,-0.989410400390625,0.08612060546875,0.0346527099609375
1711649893689317600,7.237317626953125,-0.98614501953125,0.0855865478515625,0.0333709716796875
1711649893699391500,7.2473916015625,-0.9849700927734375,0.0851593017578125,0.0340423583984375
1711649893709465900,7.2574658203125,-0.983245849609375,0.0848236083984375,0.036346435546875
1711649893719539700,7.267539794921875,-0.98712158203125,0.086822509765625,0.0390472412109375
1711649893729613600,7.277613525390625,-0.9904022216796875,0.0885772705078125,0.041168212890625
1711649893739687700,7.287687744140625,-0.99102783203125,0.0908355712890625,0.043487548828125
1711649893749761500,7.297761474609375,-0.9954833984375,0.0926361083984375,0.043670654296875
1711649893759836700,7.307836669921875,-0.9952392578125,0.0964813232421875,0.04345703125
1711649893769910500,7.31791064453125,-0.99267578125,0.100006103515625,0.040069580078125
1711649893779984600,7.327984619140625,-0.99420166015625,0.09979248046875,0.0365142822265625
1711649893790058500,7.33805859375,-0.992034912109375,0.1012420654296875,0.027740478515625
1711649893800132600,7.348132568359375,-0.992950439453125,0.1014404296875,0.0233154296875
1711649893810206700,7.358206787109375,-0.9959716796875,0.1024627685546875,0.0264892578125
1711649893820280600,7.368280517578125,-0.9994964599609375,0.103271484375,0.0266265869140625
1711649893830354700,7.378354736328125,-1.00103759765625,0.1019439697265625,0.027557373046875
1711649893840428500,7.388428466796875,-1.0010986328125,0.102294921875,0.031585693359375
1711649893850502700,7.398502685546875,-1.001251220703125,0.1045684814453125,0.035064697265625
1711649893860576500,7.408576416015625,-1.0009002685546875,0.10211181640625,0.0337371826171875
1711649893870651000,7.41865087890625,-1.0001220703125,0.0995330810546875,0.0299835205078125
1711649893880725000,7.42872509765625,-1.0012054443359375,0.0986785888671875,0.0278472900390625
1711649893890798800,7.438798828125,-0.9971466064453125,0.0968017578125,0.0246734619140625
1711649893900874000,7.4488740234375,-0.9946136474609375,0.0919036865234375,0.0199737548828125
1711649893910947800,7.45894775390625,-0.9942626953125,0.089630126953125,0.0180206298828125
1711649893921022000,7.46902197265625,-0.9927215576171875,0.0868072509765625,0.021087646484375
1711649893931095800,7.479095703125,-0.992889404296875,0.08514404296875,0.030120849609375
1711649893941169700,7.489169677734375,-0.99249267578125,0.083648681640625,0.0394134521484375
1711649893951243800,7.499243896484375,-0.9910736083984375,0.0796966552734375,0.0422821044921875
1711649893961318000,7.50931787109375,-0.986175537109375,0.0792694091796875,0.0428009033203125
1711649893971392000,7.51939208984375,-0.9841461181640625,0.0784454345703125,0.039215087890625
1711649893981465900,7.5294658203125,-0.981414794921875,0.0802154541015625,0.0346832275390625
1711649893991540000,7.5395400390625,-0.9815826416015625,0.0808868408203125,0.0296630859375
1711649894001613800,7.54961376953125,-0.9823150634765625,0.0817413330078125,0.024810791015625
1711649894011687700,7.559687744140625,-0.986541748046875,0.08477783203125,0.0214996337890625
1711649894021761800,7.56976171875,-0.9890289306640625,0.0897369384765625,0.0214385986328125
1711649894031836000,7.5798359375,-0.9934539794921875,0.0915069580078125,0.0267791748046875
1711649894041910000,7.589909912109375,-0.9995574951171875,0.09478759765625,0.031585693359375
1711649894051984000,7.59998388671875,-1.003753662109375,0.09765625,0.0315093994140625
1711649894062059000,7.61005908203125,-1.0030364990234375,0.1006317138671875,0.0294952392578125
1711649894072132900,7.6201328125,-1.00341796875,0.1026458740234375,0.02783203125
1711649894082206700,7.630206787109375,-1.0037841796875,0.101715087890625,0.0277099609375
1711649894092280800,7.64028076171875,-1.00115966796875,0.0995941162109375,0.0246734619140625
1711649894102354700,7.650354736328125,-0.997589111328125,0.0977783203125,0.026031494140625
1711649894112428800,7.6604287109375,-0.9944915771484375,0.0991668701171875,0.025787353515625
1711649894122503000,7.6705029296875,-0.9972381591796875,0.0991668701171875,0.0262603759765625
1711649894132577000,7.680576904296875,-0.9974517822265625,0.09942626953125,0.0281829833984375
1711649894142651000,7.69065087890625,-0.99774169921875,0.10260009765625,0.0264434814453125
1711649894152724700,7.700724853515625,-0.999664306640625,0.1037445068359375,0.02386474609375
1711649894162798800,7.710798828125,-1.0005645751953125,0.101715087890625,0.026092529296875
1711649894172872700,7.720872802734375,-1.0021820068359375,0.098297119140625,0.027618408203125
1711649894182946800,7.73094677734375,-1.0011138916015625,0.093994140625,0.029693603515625
1711649894193021000,7.74102099609375,-0.9929351806640625,0.088226318359375,0.032257080078125
1711649894203094800,7.7510947265625,-0.990509033203125,0.0853424072265625,0.0294647216796875
1711649894213170000,7.761169921875,-0.9825897216796875,0.0812530517578125,0.0294647216796875
1711649894223244000,7.771244140625,-0.979248046875,0.0796966552734375,0.026611328125
1711649894233318000,7.78131787109375,-0.97998046875,0.0781402587890625,0.027557373046875
1711649894243391700,7.791391845703125,-0.981719970703125,0.07958984375,0.0266571044921875
1711649894253465900,7.8014658203125,-0.9874725341796875,0.0811920166015625,0.028472900390625
1711649894263539700,7.811539794921875,-0.9909820556640625,0.085174560546875,0.030181884765625
1711649894273613800,7.82161376953125,-0.996673583984375,0.0860595703125,0.0331573486328125
1711649894283688000,7.83168798828125,-0.9996490478515625,0.086181640625,0.035186767578125
1711649894293761800,7.84176171875,-0.9995574951171875,0.0858917236328125,0.036529541015625
1711649894303836000,7.8518359375,-0.99920654296875,0.086669921875,0.0364227294921875
1711649894313909800,7.86190966796875,-0.9978179931640625,0.08447265625,0.0360565185546875
1711649894323984000,7.87198388671875,-0.99346923828125,0.0810394287109375,0.032562255859375
1711649894334057700,7.8820576171875,-0.98974609375,0.0793304443359375,0.032135009765625
1711649894344131800,7.8921318359375,-0.9888153076171875,0.0785064697265625,0.031219482421875
1711649894354206000,7.9022060546875,-0.989410400390625,0.0790863037109375,0.0325927734375
1711649894364279800,7.91227978515625,-0.991607666015625,0.0777587890625,0.0343170166015625
1711649894374354000,7.92235400390625,-0.9941558837890625,0.078277587890625,0.036407470703125
1711649894384428800,7.9324287109375,-0.996978759765625,0.0789031982421875,0.0377197265625
1711649894394503000,7.9425029296875,-0.999969482421875,0.0803985595703125,0.03924560546875
1711649894404576800,7.95257666015625,-0.998748779296875,0.081085205078125,0.0382537841796875
1711649894414651000,7.96265087890625,-0.99652099609375,0.08013916015625,0.0355072021484375
1711649894424724700,7.972724853515625,-0.9964447021484375,0.083892822265625,0.03192138671875
1711649894434798600,7.982798583984375,-0.9956817626953125,0.084564208984375,0.02783203125
1711649894444873000,7.992873046875,-0.99627685546875,0.08636474609375,0.0277099609375
1711649894454946800,8.00294677734375,-0.9971923828125,0.088470458984375,0.0288238525390625
1711649894465021000,8.01302099609375,-1.0001220703125,0.0859527587890625,0.0279998779296875
1711649894475094800,8.0230947265625,-0.9983062744140625,0.0847930908203125,0.0279388427734375
1711649894485169000,8.0331689453125,-0.998291015625,0.08343505859375,0.0271759033203125
1711649894495242800,8.04324267578125,-0.99822998046875,0.082122802734375,0.025665283203125
1711649894505316600,8.053316650390625,-0.99578857421875,0.0809478759765625,0.0240478515625
1711649894515391000,8.063390869140624,-0.9948577880859375,0.0776824951171875,0.0234832763671875
1711649894525464800,8.07346484375,-0.9940338134765625,0.076690673828125,0.0233154296875
1711649894535539000,8.0835390625,-0.991546630859375,0.075897216796875,0.0238800048828125
1711649894545613800,8.09361376953125,-0.9893341064453125,0.07562255859375,0.02655029296875
1711649894555688000,8.10368798828125,-0.9881134033203125,0.078521728515625,0.0311279296875
1711649894565761800,8.11376171875,-0.9896392822265625,0.0802764892578125,0.0322113037109375
1711649894575836000,8.1238359375,-0.9899139404296875,0.07916259765625,0.0313262939453125
1711649894585909800,8.13390966796875,-0.992523193359375,0.0812225341796875,0.0326385498046875
1711649894595983600,8.143983642578124,-0.99444580078125,0.086822509765625,0.03253173828125
1711649894606058000,8.15405810546875,-0.99658203125,0.0860137939453125,0.033599853515625
1711649894616131800,8.1641318359375,-0.9989013671875,0.08551025390625,0.0333251953125
1711649894626206000,8.1742060546875,-0.997222900390625,0.084442138671875,0.037139892578125
1711649894636279800,8.18427978515625,-0.9958953857421875,0.084747314453125,0.0438079833984375
1711649894646353700,8.194353759765624,-0.992034912109375,0.0864105224609375,0.0459442138671875
1711649894656427800,8.204427734375,-0.9902801513671875,0.08746337890625,0.0457916259765625
1711649894666502000,8.214501953125,-0.987274169921875,0.090118408203125,0.043914794921875
1711649894676576000,8.224575927734374,-0.9862823486328125,0.0940399169921875,0.0435638427734375
1711649894686649900,8.23464990234375,-0.9892578125,0.09698486328125,0.0403594970703125
1711649894696724000,8.244723876953126,-0.992156982421875,0.09814453125,0.0367431640625
1711649894706798800,8.254798828125,-0.9938201904296875,0.0979461669921875,0.036895751953125
1711649894716873000,8.264873046875,-0.9983673095703125,0.096893310546875,0.041473388671875
1711649894726946800,8.27494677734375,-0.9969635009765625,0.0961456298828125,0.0413818359375
1711649894737020700,8.285020751953125,-0.9959716796875,0.09454345703125,0.0431671142578125
1711649894747094800,8.2950947265625,-0.994720458984375,0.094207763671875,0.04541015625
1711649894757169000,8.3051689453125,-0.9917144775390625,0.0933990478515625,0.0460357666015625
1711649894767243000,8.315242919921875,-0.9926605224609375,0.0930633544921875,0.041778564453125
1711649894777316900,8.32531689453125,-0.9932708740234375,0.0947418212890625,0.0391998291015625
1711649894787391000,8.335390869140625,-0.9927825927734375,0.094573974609375,0.037689208984375
1711649894797464800,8.34546484375,-0.9920501708984375,0.0954437255859375,0.0363006591796875
1711649894807538700,8.35553857421875,-0.993255615234375,0.094970703125,0.0395965576171875
1711649894817612800,8.36561279296875,-0.9973297119140625,0.0981292724609375,0.0440521240234375
1711649894827687000,8.37568701171875,-0.9983062744140625,0.0974273681640625,0.0426483154296875
1711649894837761000,8.385760986328124,-0.998260498046875,0.0931854248046875,0.04095458984375
1711649894847835000,8.3958349609375,-0.9967193603515625,0.0927276611328125,0.03961181640625
1711649894857908700,8.40590869140625,-0.99078369140625,0.09423828125,0.0364990234375
1711649894867982000,8.415982177734374,-0.9853973388671875,0.0911102294921875,0.0352783203125
1711649894878056000,8.426055908203125,-0.987579345703125,0.0914764404296875,0.0367584228515625
1711649894888131000,8.436131103515624,-0.9883575439453125,0.093109130859375,0.039642333984375
1711649894898205000,8.446204833984375,-0.989776611328125,0.0938720703125,0.038970947265625
1711649894908279300,8.456279296875,-0.9930419921875,0.094482421875,0.0404052734375
1711649894918353200,8.466353271484374,-0.9938812255859375,0.097320556640625,0.0389556884765625
1711649894928427000,8.476427001953125,-0.994537353515625,0.0986328125,0.03533935546875
1711649894938501000,8.486501220703126,-0.996429443359375,0.09869384765625,0.033538818359375
1711649894948575000,8.496574951171874,-0.994659423828125,0.1007537841796875,0.032257080078125
1711649894958649000,8.506649169921875,-0.996917724609375,0.1025848388671875,0.0327301025390625
1711649894968723000,8.516722900390626,-0.9946136474609375,0.1011199951171875,0.0327301025390625
1711649894978797300,8.52679736328125,-0.9958038330078125,0.10162353515625,0.03668212890625
1711649894988871200,8.53687109375,-0.9956512451171875,0.100128173828125,0.038421630859375
1711649894998945000,8.546945068359374,-0.993927001953125,0.0991363525390625,0.0382537841796875
1711649895009019100,8.55701904296875,-0.9914398193359375,0.0997772216796875,0.0349884033203125
1711649895019093000,8.567093017578125,-0.9905853271484375,0.09954833984375,0.0334625244140625
1711649895029167000,8.5771669921875,-0.9903717041015625,0.100860595703125,0.0330810546875
1711649895039241000,8.587240966796875,-0.9909515380859375,0.1002349853515625,0.0331268310546875
1711649895049315000,8.597315185546876,-0.9924774169921875,0.101776123046875,0.034271240234375
1711649895059390000,8.607389892578125,-0.993011474609375,0.103179931640625,0.0329437255859375
1711649895069464000,8.617464111328125,-0.9935760498046875,0.1042633056640625,0.0349273681640625
1711649895079538200,8.6275380859375,-0.9960784912109375,0.1042938232421875,0.034912109375
1711649895089612000,8.637612060546875,-0.9935150146484375,0.1051025390625,0.0353240966796875
1711649895099686100,8.64768603515625,-0.99114990234375,0.1064300537109375,0.0326385498046875
1711649895109760000,8.657760009765624,-0.9908905029296875,0.1084442138671875,0.02880859375
1711649895119834000,8.667834228515625,-0.9931182861328125,0.10955810546875,0.02935791015625
1711649895129908000,8.677907958984376,-0.9935302734375,0.1085662841796875,0.0323486328125
1711649895139982000,8.687982177734375,-0.995208740234375,0.1082611083984375,0.031829833984375
1711649895150056200,8.69805615234375,-0.996124267578125,0.1091156005859375,0.0310211181640625
1711649895160130000,8.708130126953124,-0.996002197265625,0.11138916015625,0.03387451171875
1711649895170204200,8.7182041015625,-0.9966583251953125,0.1089324951171875,0.0342254638671875
1711649895180278000,8.728278076171875,-0.9952850341796875,0.1072235107421875,0.03240966796875
1711649895190352100,8.73835205078125,-0.9941253662109375,0.1066741943359375,0.03070068359375
1711649895200426000,8.748426025390625,-0.9893341064453125,0.1072998046875,0.0299530029296875
1711649895210500000,8.7585,-0.9886016845703125,0.1078033447265625,0.02838134765625
1711649895220574200,8.76857421875,-0.9897308349609375,0.107940673828125,0.0280914306640625
1711649895230648000,8.77864794921875,-0.9922943115234375,0.1059722900390625,0.030609130859375
1711649895240723200,8.78872314453125,-0.99664306640625,0.104827880859375,0.0332183837890625
1711649895250797000,8.798797119140625,-0.995819091796875,0.1032562255859375,0.037750244140625
1711649895260871200,8.80887109375,-0.9940032958984375,0.1035614013671875,0.0408782958984375
1711649895270945000,8.818945068359374,-0.991668701171875,0.102569580078125,0.0409088134765625
1711649895281019000,8.829018798828125,-0.989288330078125,0.102142333984375,0.0411224365234375
1711649895291093000,8.839093017578126,-0.992156982421875,0.1014251708984375,0.0381011962890625
1711649895301167000,8.8491669921875,-0.9892425537109375,0.1029815673828125,0.0343170166015625
1711649895311241200,8.8592412109375,-0.989715576171875,0.1035614013671875,0.030609130859375
1711649895321315000,8.869315185546874,-0.993560791015625,0.1029205322265625,0.0298309326171875
1711649895331389200,8.87938916015625,-0.995574951171875,0.1007080078125,0.0342254638671875
1711649895341463000,8.889463134765625,-1.0000762939453125,0.101531982421875,0.0408172607421875
1711649895351537000,8.899536865234374,-0.9998321533203125,0.1023406982421875,0.046630859375
1711649895361611000,8.909611083984375,-0.996490478515625,0.102569580078125,0.045440673828125
1711649895371685000,8.91968505859375,-0.9904327392578125,0.1021728515625,0.043670654296875
1711649895381759200,8.92975927734375,-0.9868621826171875,0.102630615234375,0.0401458740234375
1711649895391833000,8.9398330078125,-0.9839324951171875,0.1016998291015625,0.034912109375
1711649895401907200,8.9499072265625,-0.9830474853515625,0.102142333984375,0.030914306640625
1711649895411981000,8.95998095703125,-0.9829559326171875,0.10321044921875,0.0306243896484375
1711649895422055000,8.970054931640625,-0.9879608154296875,0.1045684814453125,0.0330352783203125
1711649895432130000,8.980130126953124,-0.9932708740234375,0.105438232421875,0.0370635986328125
1711649895442204000,8.990203857421875,-0.995208740234375,0.109130859375,0.039947509765625
1711649895452278000,9.000278076171876,-0.9993133544921875,0.1104583740234375,0.0412750244140625
1711649895462352100,9.01035205078125,-0.9990386962890625,0.109710693359375,0.0412750244140625
1711649895472426200,9.02042626953125,-0.99810791015625,0.109222412109375,0.0388641357421875
1711649895482500000,9.0305,-0.9972686767578125,0.1092681884765625,0.03448486328125
1711649895492574000,9.040573974609375,-0.994842529296875,0.1089935302734375,0.034423828125
1711649895502648000,9.05064794921875,-0.99432373046875,0.105499267578125,0.03564453125
1711649895512722000,9.060721923828124,-0.9927825927734375,0.10418701171875,0.036376953125
1711649895522796000,9.070796142578125,-0.9921417236328125,0.1069793701171875,0.03875732421875
1711649895532870100,9.0808701171875,-0.99261474609375,0.10498046875,0.0406036376953125
1711649895542944300,9.0909443359375,-0.9945526123046875,0.1057891845703125,0.0362091064453125
1711649895553018000,9.10101806640625,-0.9946441650390625,0.1055450439453125,0.034881591796875
1711649895563092000,9.111092041015626,-0.9925079345703125,0.1063385009765625,0.032470703125
1711649895573166000,9.121166015625,-0.99127197265625,0.10748291015625,0.0291290283203125
1711649895583240000,9.131239990234375,-0.9918212890625,0.10791015625,0.02825927734375
1711649895593314000,9.14131396484375,-0.9925079345703125,0.106719970703125,0.0295562744140625
1711649895603388200,9.15138818359375,-0.994903564453125,0.10772705078125,0.031585693359375
1711649895613462000,9.1614619140625,-0.9952392578125,0.1095428466796875,0.0312957763671875
1711649895623537200,9.171537109375,-0.9962615966796875,0.1114501953125,0.0313568115234375
1711649895633611300,9.181611328125,-0.996856689453125,0.1103057861328125,0.0268402099609375
1711649895643685000,9.19168505859375,-0.9950714111328125,0.1043853759765625,0.0253753662109375
1711649895653759000,9.201759033203125,-0.9954071044921875,0.1022186279296875,0.0287017822265625
1711649895663833000,9.2118330078125,-0.9938201904296875,0.1009674072265625,0.030364990234375
1711649895673907000,9.221906982421874,-0.9913787841796875,0.0976104736328125,0.032806396484375
1711649895683981000,9.23198095703125,-0.9893798828125,0.0977020263671875,0.037384033203125
1711649895694055200,9.24205517578125,-0.98858642578125,0.0979766845703125,0.0391693115234375
1711649895704129000,9.25212890625,-0.9877777099609375,0.098419189453125,0.03729248046875
1711649895714203100,9.262203125,-0.987945556640625,0.09912109375,0.0373992919921875
1711649895724277000,9.272277099609376,-0.9920654296875,0.09991455078125,0.0350799560546875
1711649895734351000,9.28235107421875,-0.9942474365234375,0.10076904296875,0.0353851318359375
1711649895744425000,9.292425048828125,-0.995147705078125,0.102264404296875,0.034271240234375
1711649895754499000,9.3024990234375,-0.9952239990234375,0.100128173828125,0.0345458984375
1711649895764573200,9.3125732421875,-0.9954681396484375,0.097991943359375,0.039520263671875
1711649895774647000,9.32264697265625,-0.992919921875,0.0960845947265625,0.039794921875
1711649895784721200,9.33272119140625,-0.9911041259765625,0.0923919677734375,0.039398193359375
1711649895794795000,9.342794921875,-0.988922119140625,0.091033935546875,0.0373687744140625
1711649895804869000,9.352869140625,-0.987518310546875,0.091339111328125,0.035003662109375
1711649895814943000,9.36294287109375,-0.986663818359375,0.091156005859375,0.0314178466796875
1711649895825018000,9.37301806640625,-0.987060546875,0.0944976806640625,0.03253173828125
1711649895835092000,9.383092041015624,-0.988372802734375,0.095550537109375,0.0319976806640625
1711649895845166000,9.393166015625,-0.99005126953125,0.1006317138671875,0.033477783203125
1711649895855240200,9.403240234375,-0.99359130859375,0.1025543212890625,0.035491943359375
1711649895865314800,9.413314697265625,-1.0013885498046875,0.1070556640625,0.0390472412109375
1711649895875388700,9.423388671875,-1.003204345703125,0.1063079833984375,0.044189453125
1711649895885462800,9.433462890625,-1.0040740966796875,0.102996826171875,0.0449371337890625
1711649895895536600,9.44353662109375,-1.0010986328125,0.0999298095703125,0.04254150390625
1711649895905610800,9.45361083984375,-0.99444580078125,0.0983428955078125,0.0396270751953125
1711649895915684600,9.4636845703125,-0.9889068603515625,0.096221923828125,0.0378570556640625
1711649895925758700,9.4737587890625,-0.986663818359375,0.0950927734375,0.035247802734375
1711649895935832800,9.483832763671876,-0.9843902587890625,0.0950164794921875,0.0352630615234375
1711649895945906700,9.49390673828125,-0.982086181640625,0.098419189453125,0.035491943359375
1711649895955980800,9.503980712890625,-0.9871673583984375,0.100860595703125,0.0358428955078125
1711649895966054700,9.5140546875,-0.995025634765625,0.1052093505859375,0.037353515625
1711649895976128800,9.524128662109375,-1.0008087158203125,0.1074981689453125,0.0341796875
1711649895986202600,9.53420263671875,-1.0017242431640625,0.1085968017578125,0.0330352783203125
1711649895996276700,9.54427685546875,-1.0005645751953125,0.10882568359375,0.03570556640625
1711649896006350800,9.554350830078125,-0.9971923828125,0.1084747314453125,0.0389251708984375
1711649896016424700,9.5644248046875,-0.9908599853515625,0.104827880859375,0.0374603271484375
1711649896026498800,9.574498779296874,-0.9869384765625,0.102813720703125,0.03558349609375
1711649896036572700,9.58457275390625,-0.9886016845703125,0.102813720703125,0.035675048828125
1711649896046646500,9.594646484375,-0.984893798828125,0.10296630859375,0.0356292724609375
1711649896056720600,9.604720703125,-0.9890594482421875,0.10443115234375,0.034698486328125
1711649896066794800,9.614794677734375,-0.9954071044921875,0.1072540283203125,0.031707763671875
1711649896076868900,9.624868896484376,-0.9964599609375,0.10723876953125,0.0342559814453125
1711649896086943700,9.63494384765625,-0.99932861328125,0.1087188720703125,0.0382537841796875
1711649896097017900,9.645017822265626,-0.9979095458984375,0.108978271484375,0.0409698486328125
1711649896107091700,9.655091796875,-0.993377685546875,0.1116943359375,0.041290283203125
1711649896117165800,9.665165771484375,-0.9908447265625,0.1114501953125,0.039459228515625
1711649896127239700,9.67523974609375,-0.987457275390625,0.1111602783203125,0.0399627685546875
1711649896137313500,9.6853134765625,-0.9870452880859375,0.1100616455078125,0.038848876953125
1711649896147387600,9.6953876953125,-0.9862213134765625,0.10833740234375,0.038238525390625
1711649896157461800,9.705461669921876,-0.985870361328125,0.1101531982421875,0.0410308837890625
1711649896167535900,9.715535888671875,-0.989776611328125,0.11199951171875,0.0427398681640625
1711649896177609700,9.725609619140625,-0.991180419921875,0.1128997802734375,0.04437255859375
1711649896187683800,9.735683837890624,-0.994842529296875,0.1124725341796875,0.042816162109375
1711649896197757700,9.7457578125,-0.9951629638671875,0.1143798828125,0.0409393310546875
1711649896207831600,9.75583154296875,-0.9944915771484375,0.114349365234375,0.03851318359375
1711649896217905700,9.76590576171875,-0.993316650390625,0.1132354736328125,0.035552978515625
1711649896227979800,9.775979736328125,-0.9954986572265625,0.1116180419921875,0.0382232666015625
1711649896238054000,9.786053955078126,-0.9935455322265625,0.110076904296875,0.041748046875
1711649896248127700,9.796127685546875,-0.99566650390625,0.110198974609375,0.0406036376953125
1711649896258201600,9.80620166015625,-0.9978179931640625,0.1104888916015625,0.0439453125
1711649896268275700,9.816275634765624,-0.998748779296875,0.109130859375,0.0409088134765625
1711649896278349600,9.826349609375,-0.9970855712890625,0.1058197021484375,0.04296875
1711649896288424700,9.8364248046875,-0.9962615966796875,0.1027984619140625,0.0407562255859375
1711649896298498600,9.84649853515625,-0.9940948486328125,0.101165771484375,0.03619384765625
1711649896308572700,9.85657275390625,-0.9877777099609375,0.0987548828125,0.0356903076171875
1711649896318646800,9.866646728515626,-0.9830169677734375,0.09747314453125,0.038726806640625
1711649896328721000,9.876720947265625,-0.98406982421875,0.097930908203125,0.042236328125
1711649896338794800,9.886794677734375,-0.985809326171875,0.099273681640625,0.0447540283203125
1711649896348868600,9.89686865234375,-0.9898834228515625,0.09930419921875,0.0444793701171875
1711649896358942700,9.906942626953125,-0.99346923828125,0.10186767578125,0.043212890625
1711649896369016600,9.9170166015625,-0.9933624267578125,0.10296630859375,0.0412139892578125
1711649896379090700,9.927090576171874,-0.9930419921875,0.102508544921875,0.0381317138671875
1711649896389164800,9.937164794921875,-0.9912567138671875,0.1038360595703125,0.02960205078125
1711649896399239700,9.94723974609375,-0.989990234375,0.1033782958984375,0.0283050537109375
1711649896409313800,9.957313720703125,-0.9878082275390625,0.1038665771484375,0.0296173095703125
1711649896419388000,9.967387939453126,-0.98895263671875,0.1036529541015625,0.03167724609375
1711649896429461800,9.977461669921874,-0.9901123046875,0.106842041015625,0.0348968505859375
1711649896439535600,9.98753564453125,-0.991973876953125,0.1092071533203125,0.0393829345703125
1711649896449609700,9.997609619140626,-0.994049072265625,0.11297607421875,0.04052734375
1711649896459683600,10.00768359375,-0.99658203125,0.1145477294921875,0.0381011962890625
1711649896469757700,10.0177578125,-0.996307373046875,0.11480712890625,0.038909912109375
1711649896479831800,10.027831787109376,-0.9972991943359375,0.1153106689453125,0.03924560546875
1711649896489905700,10.03790576171875,-0.9944000244140625,0.113250732421875,0.040557861328125
1711649896499979800,10.047979736328125,-0.9945220947265625,0.11383056640625,0.0412139892578125
1711649896510053600,10.0580537109375,-0.9920806884765625,0.113250732421875,0.0446624755859375
1711649896520127700,10.068127685546875,-0.9892120361328125,0.1099395751953125,0.046142578125
1711649896530201600,10.07820166015625,-0.9920501708984375,0.1076812744140625,0.0446624755859375
1711649896540275700,10.088275634765624,-0.991729736328125,0.1061553955078125,0.0435028076171875
1711649896550349800,10.098349853515625,-0.9883880615234375,0.106964111328125,0.040863037109375
1711649896560423700,10.108423583984376,-0.9888458251953125,0.1057586669921875,0.0381622314453125
1711649896570497800,10.118497802734375,-0.9909515380859375,0.1059722900390625,0.0364837646484375
1711649896580571600,10.128571533203125,-0.9901885986328125,0.103607177734375,0.0380096435546875
1711649896590645800,10.138645751953124,-0.9878082275390625,0.104827880859375,0.04022216796875
1711649896600719600,10.1487197265625,-0.98809814453125,0.103851318359375,0.040283203125
1711649896610793700,10.158793701171875,-0.9902801513671875,0.1050872802734375,0.0403900146484375
1711649896620867800,10.168867919921874,-0.99017333984375,0.106536865234375,0.0396575927734375
1711649896630942700,10.178942626953125,-0.989837646484375,0.108551025390625,0.0364837646484375
1711649896641016800,10.189016845703126,-0.9903717041015625,0.10919189453125,0.0343475341796875
1711649896651090700,10.199090576171875,-0.9941864013671875,0.111907958984375,0.0341033935546875
1711649896661164800,10.209164794921875,-0.9959869384765625,0.1130523681640625,0.0350189208984375
1711649896671238700,10.21923876953125,-0.99383544921875,0.1124267578125,0.0336456298828125
1711649896681312800,10.229312744140625,-0.9958648681640625,0.111724853515625,0.032684326171875
1711649896691386600,10.23938671875,-0.9927825927734375,0.1110076904296875,0.0312652587890625
1711649896701460500,10.24946044921875,-0.990234375,0.1126251220703125,0.031005859375
1711649896711534800,10.259534912109375,-0.9888458251953125,0.1156158447265625,0.030792236328125
1711649896721608700,10.269608642578126,-0.990203857421875,0.11541748046875,0.03155517578125
1711649896731682800,10.279682861328125,-0.991058349609375,0.1163177490234375,0.03460693359375
1711649896741756700,10.289756591796875,-0.991424560546875,0.118072509765625,0.0348968505859375
1711649896751830800,10.299830810546876,-0.994659423828125,0.118011474609375,0.037567138671875
1711649896761904600,10.309904541015625,-0.9990386962890625,0.1172332763671875,0.035430908203125
1711649896771978500,10.319978515625,-0.9959259033203125,0.11474609375,0.034759521484375
1711649896782052900,10.330052978515624,-0.9932708740234375,0.1130218505859375,0.035980224609375
1711649896792126700,10.340126708984375,-0.9903106689453125,0.1126556396484375,0.0391845703125
1711649896802200800,10.350200927734376,-0.9846343994140625,0.114044189453125,0.0395660400390625
1711649896812274700,10.360274658203124,-0.983551025390625,0.11395263671875,0.0384979248046875
1711649896822348500,10.3703486328125,-0.987548828125,0.11627197265625,0.033935546875
1711649896832422700,10.380422607421876,-0.98992919921875,0.1172943115234375,0.034027099609375
1711649896842496500,10.39049658203125,-0.990386962890625,0.116943359375,0.0322113037109375
1711649896852571000,10.40057080078125,-0.9968414306640625,0.1182708740234375,0.031494140625
1711649896862645500,10.4106455078125,-0.9979248046875,0.1157684326171875,0.029144287109375
1711649896872720100,10.42072021484375,-0.997955322265625,0.116241455078125,0.033966064453125
1711649896882794000,10.4307939453125,-0.9964447021484375,0.1161041259765625,0.0374755859375
1711649896892868000,10.4408681640625,-0.992767333984375,0.113739013671875,0.0427398681640625
1711649896902942000,10.45094189453125,-0.9895172119140625,0.1136627197265625,0.0444488525390625
1711649896913015800,10.461015869140626,-0.9860382080078125,0.1143341064453125,0.0455322265625
1711649896923090000,10.47108984375,-0.9836273193359375,0.114898681640625,0.04547119140625
1711649896933163800,10.481163818359375,-0.9842071533203125,0.11572265625,0.042572021484375
1711649896943238100,10.491238037109374,-0.9842529296875,0.11456298828125,0.04022216796875
1711649896953312000,10.50131201171875,-0.987457275390625,0.117767333984375,0.039520263671875
1711649896963386000,10.51138623046875,-0.989227294921875,0.1225738525390625,0.0418853759765625
1711649896973460000,10.5214599609375,-0.99127197265625,0.1245880126953125,0.04443359375
1711649896983533800,10.531533935546875,-0.9952850341796875,0.125396728515625,0.04547119140625
1711649896993608000,10.54160791015625,-0.995086669921875,0.1281585693359375,0.0462646484375
1711649897003681800,10.551681884765625,-0.9947662353515625,0.1298828125,0.046112060546875
1711649897013756200,10.561756103515625,-0.9945831298828125,0.12994384765625,0.04681396484375
1711649897023830000,10.571830078125,-0.9945068359375,0.1296234130859375,0.0468902587890625
1711649897033904000,10.581904052734375,-0.9948577880859375,0.1311187744140625,0.04736328125
1711649897043978000,10.59197802734375,-0.9953460693359375,0.1292724609375,0.045623779296875
1711649897054051800,10.6020517578125,-0.9939117431640625,0.1289825439453125,0.0443572998046875
1711649897064126000,10.6121259765625,-0.9930877685546875,0.1285552978515625,0.046600341796875
1711649897074199800,10.62219970703125,-0.991455078125,0.1272125244140625,0.044586181640625
1711649897084274200,10.632274169921875,-0.9901123046875,0.126373291015625,0.043853759765625
1711649897094348800,10.642348876953125,-0.9883880615234375,0.126373291015625,0.0421295166015625
1711649897104423200,10.652423095703124,-0.9870758056640625,0.1251220703125,0.0417633056640625
1711649897114497000,10.6624970703125,-0.98663330078125,0.1259765625,0.038818359375
1711649897124571000,10.67257080078125,-0.9892425537109375,0.1248321533203125,0.0408477783203125
1711649897134645000,10.68264501953125,-0.99005126953125,0.1228179931640625,0.044952392578125
1711649897144718800,10.69271875,-0.988311767578125,0.121917724609375,0.044830322265625
1711649897154793000,10.70279296875,-0.98876953125,0.1228179931640625,0.047882080078125
1711649897164866800,10.71286669921875,-0.98687744140625,0.1255950927734375,0.046661376953125
1711649897174941200,10.722941162109375,-0.9865875244140625,0.1273040771484375,0.0450439453125
1711649897185015000,10.73301513671875,-0.9865875244140625,0.1283416748046875,0.043121337890625
1711649897195089000,10.7430888671875,-0.9875335693359375,0.1289215087890625,0.0419921875
1711649897205163000,10.7531630859375,-0.9922637939453125,0.129058837890625,0.044036865234375
1711649897215236900,10.76323681640625,-0.9942626953125,0.1314544677734375,0.0427398681640625
1711649897225311000,10.77331103515625,-0.9955596923828125,0.1310882568359375,0.044342041015625
1711649897235384800,10.783384765625,-0.995849609375,0.130157470703125,0.046051025390625
1711649897245459200,10.793459228515625,-0.9945526123046875,0.129913330078125,0.0459747314453125
1711649897255533000,10.803532958984375,-0.99322509765625,0.1292724609375,0.044189453125
1711649897265607000,10.81360693359375,-0.989166259765625,0.1283111572265625,0.0446624755859375
1711649897275681000,10.823680908203125,-0.9875030517578125,0.12896728515625,0.042236328125
1711649897285755000,10.8337548828125,-0.986907958984375,0.1272735595703125,0.040771484375
1711649897295829000,10.8438291015625,-0.9877777099609375,0.128936767578125,0.04132080078125
1711649897305902800,10.85390283203125,-0.990753173828125,0.129364013671875,0.04290771484375
1711649897315977000,10.86397705078125,-0.992706298828125,0.1280059814453125,0.0435638427734375
1711649897326051000,10.874051025390624,-0.994232177734375,0.1281280517578125,0.045562744140625
1711649897336125000,10.884125,-0.993499755859375,0.1272430419921875,0.0461578369140625
1711649897346199000,10.894198974609376,-0.990020751953125,0.12554931640625,0.04608154296875
1711649897356274000,10.90427392578125,-0.9884033203125,0.1227874755859375,0.046844482421875
1711649897366348000,10.91434814453125,-0.9893341064453125,0.122833251953125,0.0444183349609375
1711649897376422000,10.924421875,-0.9884185791015625,0.1212615966796875,0.0420379638671875
1711649897386496000,10.93449609375,-0.9884796142578125,0.121002197265625,0.041900634765625
1711649897396569900,10.94456982421875,-0.9869232177734375,0.12115478515625,0.043182373046875
1711649897406644000,10.95464404296875,-0.98956298828125,0.1213531494140625,0.0396881103515625
1711649897416718000,10.964718017578125,-0.9908294677734375,0.1203460693359375,0.0344696044921875
1711649897426792000,10.9747919921875,-0.9905548095703125,0.119476318359375,0.033203125
1711649897436866000,10.984865966796875,-0.99114990234375,0.118438720703125,0.03741455078125
1711649897446940000,10.99493994140625,-0.99163818359375,0.1181182861328125,0.0385589599609375
1711649897457013800,11.005013671875,-0.9918975830078125,0.1182403564453125,0.038116455078125
1711649897467088000,11.015087890625,-0.993194580078125,0.1149444580078125,0.0378570556640625
1711649897477162000,11.025161865234375,-0.990966796875,0.1144256591796875,0.040374755859375
1711649897487236000,11.035236083984374,-0.9918975830078125,0.115478515625,0.0393524169921875
1711649897497310000,11.04531005859375,-0.991485595703125,0.1148681640625,0.04010009765625
1711649897507384000,11.055384033203126,-0.9892730712890625,0.1133880615234375,0.0362396240234375
1711649897517458000,11.0654580078125,-0.991607666015625,0.1143951416015625,0.0364532470703125
1711649897527531800,11.07553173828125,-0.988800048828125,0.1153411865234375,0.03985595703125
1711649897537606000,11.08560595703125,-0.990509033203125,0.11376953125,0.0418853759765625
1711649897547680000,11.095679931640625,-0.99224853515625,0.1119384765625,0.0470123291015625
1711649897557754000,11.105754150390625,-0.98968505859375,0.1105804443359375,0.0480804443359375
1711649897567828000,11.115827880859374,-0.9910125732421875,0.110198974609375,0.0463714599609375
1711649897577902000,11.125902099609375,-0.9896240234375,0.1092681884765625,0.0426025390625
1711649897587976000,11.135975830078126,-0.9932098388671875,0.1109619140625,0.04217529296875
1711649897598049800,11.1460498046875,-0.9922637939453125,0.109771728515625,0.0396575927734375
1711649897608124000,11.1561240234375,-0.989959716796875,0.107818603515625,0.0417633056640625
1711649897618198000,11.166197998046876,-0.9906005859375,0.108184814453125,0.0461273193359375
1711649897628273000,11.17627294921875,-0.9874420166015625,0.1098480224609375,0.0464630126953125
1711649897638347000,11.186346923828125,-0.9881744384765625,0.1102294921875,0.045318603515625
1711649897648421000,11.196421142578124,-0.9925537109375,0.1108245849609375,0.0445709228515625
1711649897658495000,11.206494873046875,-0.9937591552734375,0.112091064453125,0.0443115234375
1711649897668568800,11.21656884765625,-0.9916534423828125,0.1118621826171875,0.0424652099609375
1711649897678643000,11.226642822265624,-0.994873046875,0.1126708984375,0.0404052734375
1711649897688716800,11.236716796875,-0.9952239990234375,0.1100311279296875,0.0382080078125
1711649897698791000,11.246791015625,-0.994049072265625,0.106597900390625,0.043670654296875
1711649897708865000,11.256864990234375,-0.993072509765625,0.1082611083984375,0.0474395751953125
1711649897718939100,11.266939208984375,-0.9888763427734375,0.1084136962890625,0.0477142333984375
1711649897729013000,11.277012939453124,-0.9859161376953125,0.1111907958984375,0.0482025146484375
1711649897739086800,11.2870869140625,-0.9836578369140625,0.112030029296875,0.0464630126953125
1711649897749161000,11.297160888671876,-0.9810638427734375,0.114654541015625,0.0420989990234375
1711649897759234800,11.30723486328125,-0.9825897216796875,0.117462158203125,0.038787841796875
1711649897769309000,11.317308837890625,-0.9847564697265625,0.1190032958984375,0.0374908447265625
1711649897779383000,11.327383056640626,-0.987548828125,0.12445068359375,0.0374298095703125
1711649897789457000,11.337456787109375,-0.9918975830078125,0.1273193359375,0.0420074462890625
1711649897799531000,11.347531005859375,-0.99542236328125,0.1279144287109375,0.0457611083984375
1711649897809604900,11.35760498046875,-0.9988250732421875,0.1298980712890625,0.0467987060546875
1711649897819679000,11.367678955078125,-0.999114990234375,0.1289520263671875,0.045867919921875
1711649897829752800,11.3777529296875,-0.997222900390625,0.1283721923828125,0.04345703125
1711649897839827000,11.387826904296874,-0.993743896484375,0.126861572265625,0.0425262451171875
1711649897849901000,11.397901123046875,-0.9907684326171875,0.1264190673828125,0.04150390625
1711649897859975000,11.407974853515626,-0.9887542724609375,0.127105712890625,0.0398712158203125
1711649897870048300,11.41804833984375,-0.990631103515625,0.12738037109375,0.03887939453125
1711649897880122400,11.428122314453125,-0.9930419921875,0.1266326904296875,0.0426483154296875
1711649897890196200,11.4381962890625,-0.9937286376953125,0.125244140625,0.0460662841796875
1711649897900270300,11.448270263671875,-0.9943389892578125,0.1246490478515625,0.05047607421875
1711649897910345200,11.45834521484375,-0.9925994873046875,0.124786376953125,0.0507965087890625
1711649897920419300,11.46841943359375,-0.992645263671875,0.125579833984375,0.0488128662109375
1711649897930493400,11.478493408203125,-0.9896392822265625,0.1211090087890625,0.04620361328125
1711649897940567300,11.4885673828125,-0.98736572265625,0.1186370849609375,0.0421295166015625
1711649897950641400,11.498641357421874,-0.986083984375,0.1171112060546875,0.0420379638671875
1711649897960715300,11.50871533203125,-0.986724853515625,0.1145782470703125,0.0441436767578125
1711649897970789400,11.518789306640626,-0.9869384765625,0.114593505859375,0.0462799072265625
1711649897980863200,11.52886328125,-0.9860687255859375,0.1148223876953125,0.0455322265625
1711649897990937300,11.538937255859375,-0.9855499267578125,0.116302490234375,0.044097900390625
1711649898001011500,11.549011474609374,-0.98602294921875,0.1187286376953125,0.0433349609375
1711649898011085300,11.559085205078125,-0.9873046875,0.1220703125,0.042449951171875
1711649898021159400,11.569159423828125,-0.9902801513671875,0.1231536865234375,0.0425262451171875
1711649898031233300,11.5792333984375,-0.993682861328125,0.12469482421875,0.0435943603515625
1711649898041307400,11.589307373046875,-0.99658203125,0.1255645751953125,0.0448760986328125
1711649898051381200,11.59938134765625,-0.998870849609375,0.124725341796875,0.0478668212890625
1711649898061455400,11.609455322265624,-0.996246337890625,0.1244049072265625,0.0481109619140625
1711649898071529500,11.619529541015625,-0.9928741455078125,0.121368408203125,0.04534912109375
1711649898081603300,11.629603271484376,-0.99310302734375,0.12030029296875,0.0430755615234375
1711649898091677400,11.639677490234375,-0.9893951416015625,0.1188812255859375,0.0418853759765625
1711649898101751300,11.649751220703125,-0.9874267578125,0.118927001953125,0.04229736328125
1711649898111825200,11.6598251953125,-0.98602294921875,0.1173553466796875,0.042449951171875
1711649898121899300,11.669899169921875,-0.985137939453125,0.11859130859375,0.043426513671875
1711649898131973400,11.679973388671876,-0.991119384765625,0.1194610595703125,0.0458984375
1711649898142047500,11.690047607421874,-0.992584228515625,0.1192626953125,0.0451202392578125
1711649898152121300,11.700121337890625,-0.9952392578125,0.119049072265625,0.0443115234375
1711649898162195500,11.710195556640626,-0.993499755859375,0.118194580078125,0.042510986328125
1711649898172269300,11.720269287109375,-0.992950439453125,0.1178741455078125,0.04010009765625
1711649898182343200,11.73034326171875,-0.99127197265625,0.117828369140625,0.0374603271484375
1711649898192417300,11.740417236328126,-0.9886322021484375,0.1161651611328125,0.036651611328125
1711649898202491400,11.750491455078125,-0.986480712890625,0.1177215576171875,0.0362701416015625
1711649898212565500,11.7605654296875,-0.987396240234375,0.117095947265625,0.0398712158203125
1711649898222639400,11.770639404296874,-0.989776611328125,0.1178436279296875,0.0411834716796875
1711649898232714500,11.780714599609375,-0.993316650390625,0.118499755859375,0.0422210693359375
1711649898242788400,11.790788330078126,-0.9940185546875,0.1180267333984375,0.0458221435546875
1711649898252862500,11.800862548828125,-0.992431640625,0.1194915771484375,0.0469970703125
1711649898262936300,11.810936279296875,-0.9939727783203125,0.1203155517578125,0.0478668212890625
1711649898273010200,11.82101025390625,-0.9908447265625,0.1224365234375,0.04779052734375
1711649898283084300,11.831084228515625,-0.988616943359375,0.121856689453125,0.0457611083984375
1711649898293158400,11.841158447265625,-0.98779296875,0.1207733154296875,0.048187255859375
1711649898303232500,11.851232421875,-0.9881439208984375,0.1199493408203125,0.0495758056640625
1711649898313306400,11.861306396484375,-0.9897918701171875,0.1203155517578125,0.0503692626953125
1711649898323380200,11.871380126953126,-0.9893646240234375,0.12030029296875,0.0536041259765625
1711649898333454300,11.881454345703125,-0.9895477294921875,0.1199951171875,0.05499267578125
1711649898343528200,11.891528076171875,-0.991485595703125,0.122161865234375,0.05487060546875
1711649898353602300,11.901602294921876,-0.9907989501953125,0.124298095703125,0.0552978515625
1711649898363676400,11.911676513671875,-0.9899444580078125,0.122650146484375,0.0549163818359375
1711649898373750500,11.92175048828125,-0.9911651611328125,0.124267578125,0.0556640625
1711649898383824400,11.931824462890624,-0.99285888671875,0.1238555908203125,0.0541534423828125
1711649898393898200,11.941898193359375,-0.990509033203125,0.1223297119140625,0.04913330078125
1711649898403972400,11.951972412109376,-0.9925537109375,0.121124267578125,0.0464935302734375
1711649898414046200,11.962046142578124,-0.991058349609375,0.1185760498046875,0.042327880859375
1711649898424120300,11.972120361328125,-0.9910430908203125,0.11712646484375,0.0395050048828125
1711649898434194400,11.9821943359375,-0.9899444580078125,0.11541748046875,0.0414581298828125
1711649898444268300,11.992268310546875,-0.9899749755859375,0.1162872314453125,0.043487548828125
1711649898454342400,12.00234228515625,-0.9893798828125,0.1157989501953125,0.04766845703125
1711649898464416300,12.012416259765626,-0.989288330078125,0.1156005859375,0.0526580810546875
1711649898474490400,12.022490478515625,-0.98797607421875,0.1152191162109375,0.0539093017578125
1711649898484564200,12.032564208984375,-0.9906005859375,0.1171722412109375,0.0501861572265625
1711649898494638300,12.042638427734374,-0.9922027587890625,0.117034912109375,0.04876708984375
1711649898504712400,12.05271240234375,-0.989837646484375,0.1168670654296875,0.043670654296875
1711649898514786300,12.062786376953126,-0.9906463623046875,0.1169891357421875,0.042083740234375
1711649898524860400,12.0728603515625,-0.9915924072265625,0.1164703369140625,0.0457916259765625
1711649898534934300,12.082934326171875,-0.9930419921875,0.11407470703125,0.05120849609375
1711649898545008400,12.09300830078125,-0.993560791015625,0.114715576171875,0.0616455078125
1711649898555083300,12.103083251953125,-0.9923095703125,0.1125030517578125,0.06689453125
1711649898565157400,12.113157470703126,-0.9886932373046875,0.1143341064453125,0.0699310302734375
1711649898575231200,12.123231201171874,-0.987762451171875,0.114501953125,0.06915283203125
1711649898585305300,12.133305419921875,-0.9844207763671875,0.1154327392578125,0.0684051513671875
1711649898595379500,12.14337939453125,-0.9822235107421875,0.1145782470703125,0.06231689453125
1711649898605453300,12.153453369140625,-0.9824066162109375,0.117218017578125,0.0550537109375
1711649898615527400,12.16352734375,-0.983978271484375,0.1174163818359375,0.0521087646484375
1711649898625601300,12.173601318359376,-0.98663330078125,0.1186981201171875,0.0548095703125
1711649898635675400,12.18367529296875,-0.9913482666015625,0.120208740234375,0.0559539794921875
1711649898645749200,12.193749267578125,-0.9945068359375,0.1208038330078125,0.0596923828125
1711649898655823000,12.203822998046874,-0.9953460693359375,0.1209716796875,0.063018798828125
1711649898665897500,12.2138974609375,-0.99468994140625,0.1214141845703125,0.0619354248046875
1711649898675971300,12.223971435546876,-0.99237060546875,0.12310791015625,0.0627899169921875
1711649898686045400,12.23404541015625,-0.990936279296875,0.120941162109375,0.0564727783203125
1711649898696119300,12.244119384765625,-0.9887542724609375,0.1215057373046875,0.0508575439453125
1711649898706193400,12.254193359375,-0.9893341064453125,0.121124267578125,0.0464019775390625
1711649898716267300,12.264267333984375,-0.9904327392578125,0.121063232421875,0.045013427734375
1711649898726341000,12.274341064453125,-0.9911346435546875,0.1211090087890625,0.0457916259765625
1711649898736415500,12.28441552734375,-0.993316650390625,0.1194915771484375,0.051055908203125
1711649898746489300,12.2944892578125,-0.9939727783203125,0.1201019287109375,0.0511474609375
1711649898756563500,12.3045634765625,-0.99237060546875,0.1208648681640625,0.0492401123046875
1711649898766637300,12.31463720703125,-0.98779296875,0.1223297119140625,0.047271728515625
1711649898776711200,12.324711181640625,-0.9867706298828125,0.1224822998046875,0.046875
1711649898786785300,12.334785400390626,-0.9878997802734375,0.1237640380859375,0.0505828857421875
1711649898796859400,12.344859375,-0.9916839599609375,0.122589111328125,0.0555877685546875
1711649898806933500,12.35493359375,-0.99212646484375,0.120635986328125,0.060760498046875
1711649898817007400,12.36500732421875,-0.9931793212890625,0.1209259033203125,0.064605712890625
1711649898827081500,12.37508154296875,-0.99298095703125,0.119232177734375,0.06536865234375
1711649898837155300,12.3851552734375,-0.9912261962890625,0.1202850341796875,0.0628814697265625
1711649898847229200,12.395229248046874,-0.9875946044921875,0.1183319091796875,0.0613250732421875
1711649898857303300,12.40530322265625,-0.9874114990234375,0.1168365478515625,0.0571136474609375
1711649898867377700,12.415377685546876,-0.9857940673828125,0.1171417236328125,0.0565948486328125
1711649898877451800,12.42545166015625,-0.9879150390625,0.1195220947265625,0.0580902099609375
1711649898887526000,12.43552587890625,-0.9878387451171875,0.1192779541015625,0.0594329833984375
1711649898897599700,12.445599853515626,-0.9886016845703125,0.1220550537109375,0.0611724853515625
1711649898907673600,12.455673583984375,-0.9936065673828125,0.1226043701171875,0.06158447265625
1711649898917747700,12.465747802734375,-0.995513916015625,0.1237640380859375,0.062744140625
1711649898927821600,12.475821533203124,-0.994659423828125,0.12286376953125,0.0589752197265625
1711649898937896700,12.485896728515625,-0.9945526123046875,0.12127685546875,0.0558013916015625
1711649898947970600,12.495970458984376,-0.99383544921875,0.1187896728515625,0.05035400390625
1711649898958044700,12.506044677734375,-0.99090576171875,0.117401123046875,0.0479278564453125
1711649898968118800,12.516118896484375,-0.9902191162109375,0.1152191162109375,0.0455169677734375
1711649898978193000,12.52619287109375,-0.9878387451171875,0.11224365234375,0.04779052734375
1711649898988266800,12.536266845703125,-0.987579345703125,0.1143035888671875,0.0492706298828125
1711649898998340600,12.546340576171875,-0.988037109375,0.113037109375,0.0526123046875
1711649899008414700,12.556414794921874,-0.9913787841796875,0.1138763427734375,0.054229736328125
1711649899018488600,12.566488525390625,-0.990234375,0.1123199462890625,0.05633544921875
1711649899028562700,12.576562744140626,-0.9910736083984375,0.114837646484375,0.055084228515625
1711649899038636800,12.58663671875,-0.9909210205078125,0.113525390625,0.0542449951171875
1711649899048711000,12.5967109375,-0.990631103515625,0.112884521484375,0.05450439453125
1711649899058784800,12.60678466796875,-0.990753173828125,0.1119384765625,0.054595947265625
1711649899068858600,12.616858642578125,-0.9897613525390625,0.1107940673828125,0.0569305419921875
1711649899078932700,12.6269326171875,-0.9906768798828125,0.110687255859375,0.053497314453125
1711649899089006600,12.637006591796874,-0.991485595703125,0.1096649169921875,0.0539703369140625
1711649899099080700,12.647080810546875,-0.99078369140625,0.109893798828125,0.0526580810546875
1711649899109154800,12.65715478515625,-0.991943359375,0.109893798828125,0.054046630859375
1711649899119228700,12.667228759765624,-0.9919586181640625,0.1094207763671875,0.0512542724609375
1711649899129302800,12.677302734375,-0.9913330078125,0.1107025146484375,0.0519561767578125
1711649899139376600,12.687376708984376,-0.991363525390625,0.109039306640625,0.0519561767578125
1711649899149450800,12.69745068359375,-0.9917449951171875,0.10888671875,0.050048828125
1711649899159524600,12.707524658203125,-0.9918060302734375,0.1094512939453125,0.0497589111328125
1711649899169598700,12.7175986328125,-0.991973876953125,0.10821533203125,0.048065185546875
1711649899179672800,12.7276728515625,-0.9937744140625,0.106170654296875,0.0505523681640625
1711649899189746700,12.73774658203125,-0.989654541015625,0.10491943359375,0.051788330078125
1711649899199820800,12.74782080078125,-0.9896392822265625,0.10650634765625,0.048736572265625
1711649899209894700,12.757894775390625,-0.9893646240234375,0.10498046875,0.047332763671875
1711649899219968800,12.76796875,-0.9892120361328125,0.1049652099609375,0.0503692626953125
1711649899230042600,12.778042724609374,-0.9899139404296875,0.105865478515625,0.0492706298828125
1711649899240116500,12.788116455078125,-0.9876251220703125,0.1054534912109375,0.04937744140625
1711649899250190800,12.79819091796875,-0.9888763427734375,0.105072021484375,0.04827880859375
1711649899260264700,12.8082646484375,-0.988861083984375,0.1057586669921875,0.048583984375
1711649899270338800,12.8183388671875,-0.9918670654296875,0.106689453125,0.0489654541015625
1711649899280412700,12.82841259765625,-0.9938201904296875,0.106719970703125,0.0492706298828125
1711649899290486800,12.83848681640625,-0.9918365478515625,0.106689453125,0.0524749755859375
1711649899300560600,12.848560546875,-0.9916839599609375,0.1098175048828125,0.0574493408203125
1711649899310634500,12.858634521484374,-0.99163818359375,0.11358642578125,0.0586090087890625
1711649899320708900,12.868708984375,-0.9901275634765625,0.1128997802734375,0.0570526123046875
1711649899330782700,12.87878271484375,-0.9909210205078125,0.1119384765625,0.05419921875
1711649899340856800,12.88885693359375,-0.99267578125,0.11114501953125,0.0524139404296875
1711649899350931700,12.898931640625,-0.9925079345703125,0.1120452880859375,0.0510406494140625
1711649899361005800,12.909005859375,-0.9939422607421875,0.1103973388671875,0.051300048828125
1711649899371079700,12.91907958984375,-0.99334716796875,0.10882568359375,0.0509033203125
1711649899381153800,12.92915380859375,-0.993743896484375,0.10589599609375,0.0538787841796875
1711649899391227600,12.9392275390625,-0.9922943115234375,0.1057891845703125,0.0601043701171875
1711649899401301500,12.949301513671875,-0.9940948486328125,0.1073760986328125,0.0614166259765625
1711649899411375900,12.9593759765625,-0.9908599853515625,0.10931396484375,0.0618133544921875
1711649899421449700,12.96944970703125,-0.985687255859375,0.109222412109375,0.05810546875
1711649899431523800,12.97952392578125,-0.9865264892578125,0.1102752685546875,0.0537109375
1711649899441597700,12.98959765625,-0.9841461181640625,0.1114044189453125,0.046051025390625
1711649899451671600,12.999671630859375,-0.9851837158203125,0.112274169921875,0.0431365966796875
1711649899461745700,13.00974560546875,-0.9866943359375,0.1135711669921875,0.042877197265625
1711649899471819500,13.019819580078124,-0.9881744384765625,0.1140899658203125,0.043060302734375
1711649899481894000,13.029893798828125,-0.9909210205078125,0.117828369140625,0.0454559326171875
1711649899491967700,13.0399677734375,-0.9917755126953125,0.1183319091796875,0.0473785400390625
1711649899502041900,13.050041748046874,-0.992340087890625,0.1192169189453125,0.047210693359375
1711649899512115700,13.06011572265625,-0.9925079345703125,0.1224212646484375,0.046844482421875
1711649899522189600,13.070189453125,-0.9936676025390625,0.122955322265625,0.04730224609375
1711649899532263700,13.080263671875,-0.994171142578125,0.12542724609375,0.0464324951171875
