time,seconds_elapsed,z,y,x
1710531836074212900,0.009212890625,-0.9881134033203125,0.057281494140625,0.0084381103515625
1710531836084286700,0.01928662109375,-0.984039306640625,0.0498504638671875,0.0025634765625
1710531836094360600,0.029360595703125,-0.9760894775390625,0.0474090576171875,0.00201416015625
1710531836104434700,0.0394345703125,-0.966644287109375,0.0422515869140625,0.00152587890625
1710531836114508500,0.049508544921875,-0.9480438232421875,0.043853759765625,0.0023651123046875
1710531836124582700,0.059582763671875,-0.950286865234375,0.05718994140625,0.0153656005859375
1710531836134656800,0.06965673828125,-1.0060577392578125,0.0730438232421875,0.02947998046875
1710531836144731000,0.07973095703125,-1.067779541015625,0.090179443359375,0.0394439697265625
1710531836154804700,0.0898046875,-1.073272705078125,0.104949951171875,0.0532379150390625
1710531836164878600,0.099878662109375,-1.029449462890625,0.11932373046875,0.07427978515625
1710531836174952700,0.10995263671875,-1.012054443359375,0.128936767578125,0.085052490234375
1710531836185027000,0.120027099609375,-0.97869873046875,0.1301727294921875,0.0808258056640625
1710531836195101200,0.13010107421875,-0.9601287841796875,0.12408447265625,0.067047119140625
1710531836205175000,0.140175048828125,-0.9766082763671875,0.1145172119140625,0.05059814453125
1710531836215249400,0.15024951171875,-0.9940948486328125,0.10614013671875,0.031829833984375
1710531836225323300,0.1603232421875,-1.011474609375,0.10247802734375,0.0115966796875
1710531836235396000,0.17039599609375,-1.0069122314453125,0.0968017578125,0.0011749267578125
1710531836245470200,0.18047021484375,-0.99359130859375,0.08660888671875,0.004547119140625
1710531836255544000,0.1905439453125,-0.9915313720703125,0.0774078369140625,0.0158538818359375
1710531836265618200,0.2006181640625,-0.987152099609375,0.060455322265625,0.032257080078125
1710531836275692300,0.2106923828125,-0.9818115234375,0.0410308837890625,0.0501556396484375
1710531836285766100,0.22076611328125,-0.9823760986328125,0.020721435546875,0.0748291015625
1710531836295840300,0.23084033203125,-0.9979095458984375,0.0238037109375,0.0806121826171875
1710531836305914000,0.2409140625,-0.9982452392578125,0.0433349609375,0.0742950439453125
1710531836315988200,0.25098828125,-1.005889892578125,0.0631561279296875,0.066619873046875
1710531836326062000,0.26106201171875,-1.012908935546875,0.08154296875,0.058990478515625
1710531836336136200,0.27113623046875,-1.0045013427734375,0.099456787109375,0.050079345703125
1710531836346210300,0.281210205078125,-0.9901580810546875,0.1139068603515625,0.04339599609375
1710531836356284200,0.2912841796875,-0.9803314208984375,0.119415283203125,0.0373992919921875
1710531836366358300,0.301358154296875,-0.9805755615234375,0.1210174560546875,0.029541015625
1710531836376432000,0.31143212890625,-0.9880828857421875,0.1162261962890625,0.0257415771484375
1710531836386506200,0.32150634765625,-0.995330810546875,0.10784912109375,0.0230255126953125
1710531836396580000,0.331580078125,-0.9977569580078125,0.099639892578125,0.02691650390625
1710531836406654200,0.341654296875,-0.994842529296875,0.0895843505859375,0.0315093994140625
1710531836416728300,0.351728271484375,-0.9931182861328125,0.082916259765625,0.0359649658203125
1710531836426802200,0.36180224609375,-0.9879913330078125,0.07720947265625,0.041473388671875
1710531836436876300,0.371876220703125,-0.9890289306640625,0.075469970703125,0.04388427734375
1710531836446950100,0.3819501953125,-0.9932861328125,0.0735626220703125,0.0470733642578125
1710531836457024000,0.39202392578125,-0.9958648681640625,0.0741119384765625,0.04827880859375
1710531836467098000,0.40209814453125,-0.9992828369140625,0.0778656005859375,0.048065185546875
1710531836477172200,0.412172119140625,-0.99261474609375,0.0826263427734375,0.05023193359375
1710531836487246300,0.422246337890625,-0.99517822265625,0.0850067138671875,0.0495758056640625
1710531836497320200,0.4323203125,-0.9938507080078125,0.087860107421875,0.0508270263671875
1710531836507394300,0.442394287109375,-0.9877471923828125,0.093597412109375,0.049957275390625
1710531836517468200,0.45246826171875,-0.9916839599609375,0.100830078125,0.0466156005859375
1710531836527542000,0.4625419921875,-0.988433837890625,0.106903076171875,0.04449462890625
1710531836537616100,0.4726162109375,-1.005706787109375,0.110382080078125,0.0419921875
1710531836547690200,0.482690185546875,-0.993438720703125,0.1123504638671875,0.039947509765625
1710531836557763000,0.49276318359375,-0.99395751953125,0.11199951171875,0.042449951171875
1710531836567837200,0.502837158203125,-0.994171142578125,0.1042633056640625,0.04449462890625
1710531836577911000,0.5129111328125,-0.9904632568359375,0.0937957763671875,0.0425872802734375
1710531836587985200,0.522985107421875,-0.9922637939453125,0.08355712890625,0.0439300537109375
1710531836598059300,0.533059326171875,-0.991912841796875,0.073455810546875,0.043060302734375
1710531836608133400,0.54313330078125,-0.9950714111328125,0.066497802734375,0.0422515869140625
1710531836618207200,0.553207275390625,-0.997833251953125,0.064849853515625,0.0389251708984375
1710531836628281000,0.563281005859375,-0.997039794921875,0.070098876953125,0.040130615234375
1710531836638355200,0.573355224609375,-0.9947357177734375,0.0772552490234375,0.0409393310546875
1710531836648429000,0.583428955078125,-0.9936981201171875,0.0845184326171875,0.03985595703125
1710531836658503200,0.593503173828125,-0.9929656982421875,0.0909576416015625,0.0369720458984375
1710531836668577300,0.603577392578125,-0.993499755859375,0.0930938720703125,0.0340118408203125
1710531836678651100,0.613651123046875,-0.9972991943359375,0.0915679931640625,0.033599853515625
1710531836688725200,0.623725341796875,-1.0031890869140625,0.0871124267578125,0.03338623046875
1710531836698799000,0.633799072265625,-1.0036468505859375,0.0816802978515625,0.03466796875
1710531836708873200,0.643873291015625,-0.9992828369140625,0.0782012939453125,0.0374603271484375
1710531836718947000,0.653947021484375,-0.993865966796875,0.076934814453125,0.0384674072265625
1710531836729021200,0.664021240234375,-0.9883270263671875,0.079833984375,0.0423583984375
1710531836739095300,0.67409521484375,-0.9825592041015625,0.085418701171875,0.041229248046875
1710531836749169200,0.684169189453125,-0.98248291015625,0.0913848876953125,0.0404815673828125
1710531836759243300,0.6942431640625,-0.9918975830078125,0.0981292724609375,0.038177490234375
1710531836769317000,0.704317138671875,-0.9961700439453125,0.104949951171875,0.035858154296875
1710531836779391200,0.71439111328125,-0.9932098388671875,0.1086273193359375,0.0363006591796875
1710531836789465000,0.724465087890625,-0.9967498779296875,0.105865478515625,0.0384979248046875
1710531836799539200,0.734539306640625,-0.996795654296875,0.092559814453125,0.0400543212890625
1710531836809613300,0.74461328125,-0.9985198974609375,0.0770416259765625,0.042572021484375
1710531836819687200,0.754687255859375,-1.0023193359375,0.069854736328125,0.0452728271484375
1710531836829761300,0.76476123046875,-0.9974365234375,0.0651397705078125,0.04071044921875
1710531836839835100,0.774835205078125,-0.9941253662109375,0.0652008056640625,0.037200927734375
1710531836849909200,0.7849091796875,-0.9933319091796875,0.0632781982421875,0.02935791015625
1710531836859983000,0.794983154296875,-0.9916229248046875,0.0679473876953125,0.0243682861328125
1710531836870057200,0.80505712890625,-0.990570068359375,0.078826904296875,0.02008056640625
1710531836880131300,0.81513134765625,-0.985198974609375,0.091400146484375,0.022216796875
1710531836890205200,0.825205078125,-0.987701416015625,0.1027069091796875,0.0290679931640625
1710531836900278000,0.835278076171875,-0.993316650390625,0.1125030517578125,0.0362396240234375
1710531836910352100,0.84535205078125,-0.99432373046875,0.117218017578125,0.0464630126953125
1710531836920426200,0.85542626953125,-0.9958343505859375,0.117340087890625,0.0580291748046875
1710531836930500400,0.865500244140625,-0.994415283203125,0.114776611328125,0.06512451171875
1710531836940574200,0.87557421875,-0.9944610595703125,0.10650634765625,0.06573486328125
1710531836950648300,0.8856484375,-0.9975738525390625,0.0987091064453125,0.0633392333984375
1710531836960722200,0.89572216796875,-0.9928131103515625,0.0884857177734375,0.0592041015625
1710531836970796000,0.905796142578125,-0.9910125732421875,0.0819091796875,0.052032470703125
1710531836980870100,0.9158701171875,-0.9906005859375,0.074554443359375,0.0453948974609375
1710531836990944300,0.9259443359375,-0.991424560546875,0.0732574462890625,0.0376129150390625
1710531837001018400,0.936018310546875,-0.9920806884765625,0.0720977783203125,0.0324249267578125
1710531837011092200,0.94609228515625,-0.99072265625,0.0756072998046875,0.0281524658203125
1710531837021166000,0.956166015625,-0.9972686767578125,0.0817413330078125,0.0257415771484375
1710531837031240200,0.966240234375,-1.014190673828125,0.069610595703125,0.02288818359375
1710531837041314000,0.97631396484375,-1.011260986328125,0.0744781494140625,0.0292816162109375
1710531837051388200,0.98638818359375,-1.0189056396484375,0.091033935546875,0.0384674072265625
1710531837061462300,0.996462158203125,-0.997314453125,0.11065673828125,0.0386962890625
1710531837071536400,1.006536376953125,-0.98175048828125,0.1208343505859375,0.0325927734375
1710531837081610200,1.0166103515625,-0.97650146484375,0.1192626953125,0.027313232421875
1710531837091684000,1.02668408203125,-0.97601318359375,0.10638427734375,0.02960205078125
1710531837101758200,1.03675830078125,-0.9770355224609375,0.0879364013671875,0.0348968505859375
1710531837111832000,1.04683203125,-0.9779052734375,0.0760650634765625,0.039764404296875
1710531837121906200,1.05690625,-0.9749755859375,0.07037353515625,0.04095458984375
1710531837131980300,1.066980224609375,-0.973052978515625,0.0693817138671875,0.034393310546875
1710531837142054400,1.077054443359375,-0.976409912109375,0.06689453125,0.0297393798828125
1710531837152128300,1.087128173828125,-0.9830322265625,0.0576019287109375,0.03021240234375
1710531837162202000,1.0972021484375,-0.994384765625,0.0532379150390625,0.0316619873046875
1710531837172276200,1.107276123046875,-1.0084228515625,0.0571746826171875,0.0231170654296875
1710531837182350000,1.11735009765625,-1.0347442626953125,0.0587921142578125,0.0227508544921875
1710531837192424000,1.127423828125,-1.027252197265625,0.0612945556640625,0.0412445068359375
1710531837202498300,1.137498291015625,-1.0097198486328125,0.066131591796875,0.0601654052734375
1710531837212572200,1.147572265625,-0.9989776611328125,0.0776214599609375,0.0776214599609375
1710531837222646300,1.157646240234375,-0.9879302978515625,0.09033203125,0.0873260498046875
1710531837232719000,1.167718994140625,-0.98492431640625,0.101318359375,0.0833282470703125
1710531837242793000,1.17779296875,-0.980621337890625,0.11041259765625,0.0722503662109375
1710531837252867300,1.187867431640625,-0.977569580078125,0.11370849609375,0.05865478515625
1710531837262941200,1.197941162109375,-1.0005035400390625,0.116302490234375,0.0441436767578125
1710531837273015000,1.20801513671875,-1.0118865966796875,0.1177215576171875,0.03155517578125
1710531837283089200,1.218089111328125,-1.001953125,0.114593505859375,0.0255889892578125
1710531837293163000,1.2281630859375,-0.9866943359375,0.10662841796875,0.02325439453125
1710531837303237000,1.238237060546875,-0.9820404052734375,0.0988616943359375,0.0265045166015625
1710531837313311000,1.24831103515625,-0.986572265625,0.0903167724609375,0.0309600830078125
1710531837323385300,1.25838525390625,-0.986968994140625,0.07977294921875,0.0387725830078125
1710531837333459200,1.268459228515625,-0.9900665283203125,0.0738983154296875,0.0436553955078125
1710531837343533000,1.278532958984375,-0.993682861328125,0.0697479248046875,0.0489349365234375
1710531837353607200,1.288607177734375,-1.002197265625,0.069183349609375,0.0514373779296875
1710531837363681000,1.298680908203125,-1.0006256103515625,0.0706634521484375,0.05194091796875
1710531837373755100,1.308755126953125,-0.997711181640625,0.07373046875,0.0512542724609375
1710531837383829000,1.3188291015625,-0.9964752197265625,0.076995849609375,0.05133056640625
1710531837393903000,1.328903076171875,-0.9918212890625,0.081390380859375,0.0488128662109375
1710531837403977200,1.338977294921875,-0.9891204833984375,0.08770751953125,0.0461273193359375
1710531837414051000,1.349051025390625,-0.99200439453125,0.0919189453125,0.0432891845703125
1710531837424125200,1.359125244140625,-0.9919586181640625,0.0970611572265625,0.041473388671875
1710531837434199000,1.369198974609375,-0.990447998046875,0.0976104736328125,0.0428924560546875
1710531837444273200,1.379273193359375,-0.9924163818359375,0.0991973876953125,0.0406951904296875
1710531837454347000,1.389346923828125,-0.99261474609375,0.0992431640625,0.04278564453125
1710531837464421000,1.399421142578125,-0.9918212890625,0.0944366455078125,0.0459136962890625
1710531837474495200,1.4094951171875,-0.9942779541015625,0.0831451416015625,0.0526580810546875
1710531837484569000,1.419569091796875,-0.9953155517578125,0.071624755859375,0.0555267333984375
1710531837494643200,1.429643310546875,-0.9924774169921875,0.065826416015625,0.057586669921875
1710531837504717000,1.439717041015625,-0.9907989501953125,0.069183349609375,0.0514373779296875
1710531837514791000,1.449791015625,-0.988739013671875,0.0802001953125,0.04681396484375
1710531837524865000,1.459864990234375,-0.9880828857421875,0.09765625,0.0390472412109375
1710531837534939100,1.469939208984375,-0.9921722412109375,0.1153106689453125,0.029632568359375
1710531837545013200,1.48001318359375,-0.992706298828125,0.1273651123046875,0.0226593017578125
1710531837555087000,1.490087158203125,-0.9882049560546875,0.1274871826171875,0.0243682861328125
1710531837565161200,1.5001611328125,-0.9891510009765625,0.114837646484375,0.0368804931640625
1710531837575234000,1.510234130859375,-0.9800262451171875,0.097991943359375,0.0537872314453125
1710531837585308200,1.52030810546875,-0.9912109375,0.0805206298828125,0.06634521484375
1710531837595382300,1.53038232421875,-1.0020751953125,0.066009521484375,0.0747833251953125
1710531837605456100,1.5404560546875,-0.9950408935546875,0.0570220947265625,0.07855224609375
1710531837615530000,1.550530029296875,-1.0044403076171875,0.0518341064453125,0.0695953369140625
1710531837625604000,1.56060400390625,-1.0057830810546875,0.0527801513671875,0.060211181640625
1710531837635678000,1.570677978515625,-0.9996795654296875,0.0594482421875,0.051239013671875
1710531837645752000,1.580751953125,-0.9925689697265625,0.0664215087890625,0.0414276123046875
1710531837655826200,1.590826171875,-0.9912567138671875,0.0770721435546875,0.0312347412109375
1710531837665900300,1.600900390625,-0.989471435546875,0.0841064453125,0.0282745361328125
1710531837675974100,1.61097412109375,-0.98699951171875,0.092132568359375,0.0290679931640625
1710531837686048000,1.621048095703125,-0.9908905029296875,0.0963592529296875,0.0334930419921875
1710531837696122000,1.6311220703125,-0.99676513671875,0.0950775146484375,0.04571533203125
1710531837706196000,1.641196044921875,-1.0005645751953125,0.0960693359375,0.0555572509765625
1710531837716270300,1.651270263671875,-0.9984283447265625,0.0882415771484375,0.0690155029296875
1710531837726344200,1.66134423828125,-0.9950103759765625,0.081207275390625,0.077301025390625
1710531837736418000,1.67141796875,-0.9918060302734375,0.072998046875,0.08135986328125
1710531837746492200,1.6814921875,-0.990631103515625,0.066741943359375,0.082366943359375
1710531837756566000,1.69156591796875,-0.9922637939453125,0.0601654052734375,0.0760955810546875
1710531837766640000,1.70164013671875,-0.99383544921875,0.056243896484375,0.067413330078125
1710531837776714000,1.7117138671875,-0.99444580078125,0.0550384521484375,0.0608673095703125
1710531837786788400,1.721788330078125,-0.994659423828125,0.057708740234375,0.0561065673828125
1710531837796862200,1.7318623046875,-0.99542236328125,0.0617828369140625,0.0511932373046875
1710531837806936000,1.74193603515625,-0.9969635009765625,0.06878662109375,0.0467681884765625
1710531837817010200,1.75201025390625,-0.9998779296875,0.0795135498046875,0.0444793701171875
1710531837827084000,1.762083984375,-0.9996490478515625,0.0868072509765625,0.043975830078125
1710531837837158100,1.772158203125,-0.9943389892578125,0.0945892333984375,0.0488433837890625
1710531837847232000,1.78223193359375,-0.993255615234375,0.099212646484375,0.0518798828125
1710531837857306000,1.79230615234375,-0.9915313720703125,0.1006317138671875,0.05548095703125
1710531837867380200,1.802380126953125,-0.9927825927734375,0.1001434326171875,0.0582427978515625
1710531837877453000,1.812453125,-0.9956207275390625,0.097442626953125,0.0603790283203125
1710531837887527200,1.822527099609375,-0.997344970703125,0.0937347412109375,0.0610198974609375
1710531837897601000,1.83260107421875,-0.9936676025390625,0.0866241455078125,0.0623321533203125
1710531837907675100,1.842675048828125,-0.9929351806640625,0.0808563232421875,0.0599822998046875
1710531837917749200,1.852749267578125,-0.9922637939453125,0.0749053955078125,0.05914306640625
1710531837927823000,1.862822998046875,-0.99249267578125,0.0691375732421875,0.05718994140625
1710531837937897200,1.872897216796875,-0.99188232421875,0.06671142578125,0.0524139404296875
1710531837947971000,1.88297119140625,-0.992950439453125,0.06829833984375,0.0488433837890625
1710531837958045000,1.893044921875,-0.9934844970703125,0.0691375732421875,0.0462646484375
1710531837968119000,1.903119140625,-0.994476318359375,0.074249267578125,0.0413055419921875
1710531837978193200,1.913193115234375,-0.992462158203125,0.079071044921875,0.0414276123046875
1710531837988267300,1.923267333984375,-0.9940643310546875,0.0840606689453125,0.0389404296875
1710531837998341000,1.933341064453125,-0.99017333984375,0.0920562744140625,0.037445068359375
1710531838008415200,1.943415283203125,-0.9926605224609375,0.09930419921875,0.038330078125
1710531838018489000,1.953489013671875,-0.9936065673828125,0.1068572998046875,0.0397796630859375
1710531838028563000,1.96356298828125,-0.9961395263671875,0.11676025390625,0.0426025390625
1710531838038637000,1.973636962890625,-0.9977264404296875,0.123382568359375,0.043212890625
1710531838048711200,1.983711181640625,-0.9968414306640625,0.1251220703125,0.042816162109375
1710531838058785300,1.993785400390625,-0.9923095703125,0.11956787109375,0.0450286865234375
1710531838068859100,2.003859130859375,-0.989227294921875,0.1104278564453125,0.04925537109375
1710531838078933200,2.013933349609375,-0.987548828125,0.098724365234375,0.0510406494140625
1710531838089007000,2.024007080078125,-0.9865264892578125,0.0838165283203125,0.0548095703125
1710531838099081000,2.0340810546875,-0.9867706298828125,0.072723388671875,0.057220458984375
1710531838109155000,2.044155029296875,-0.9875946044921875,0.065216064453125,0.0577239990234375
1710531838119229200,2.054229248046875,-0.9944305419921875,0.0564727783203125,0.060028076171875
1710531838129303300,2.06430322265625,-0.9957275390625,0.053802490234375,0.060791015625
1710531838139377200,2.074377197265625,-0.9938507080078125,0.0543212890625,0.0573577880859375
1710531838149451000,2.084450927734375,-0.996124267578125,0.0593719482421875,0.0551300048828125
1710531838159525000,2.094525146484375,-0.99725341796875,0.064208984375,0.052215576171875
1710531838169599000,2.104598876953125,-1.001068115234375,0.0697021484375,0.0494537353515625
1710531838179673000,2.114673095703125,-1.0052642822265625,0.07489013671875,0.04742431640625
1710531838189747200,2.124747314453125,-0.989288330078125,0.0805206298828125,0.0468292236328125
1710531838199820000,2.134820068359375,-0.9924774169921875,0.08447265625,0.0473785400390625
1710531838209894100,2.14489404296875,-0.9984130859375,0.0896759033203125,0.0487213134765625
1710531838219968000,2.154968017578125,-0.9991912841796875,0.0921630859375,0.0512847900390625
1710531838230041900,2.165041748046875,-0.9989776611328125,0.094085693359375,0.0513763427734375
1710531838240116200,2.1751162109375,-0.9870758056640625,0.08984375,0.053497314453125
1710531838250190000,2.185190185546875,-0.9903411865234375,0.0857696533203125,0.0544281005859375
1710531838260264200,2.19526416015625,-0.9961700439453125,0.081756591796875,0.0570068359375
1710531838270338000,2.205338134765625,-0.990264892578125,0.07708740234375,0.0573883056640625
1710531838280412200,2.215412109375,-0.9919586181640625,0.07269287109375,0.0580291748046875
1710531838290486000,2.225486083984375,-0.9962158203125,0.0706787109375,0.0557403564453125
1710531838300560000,2.235559814453125,-0.998992919921875,0.0716705322265625,0.0558319091796875
1710531838310634200,2.24563427734375,-0.9967498779296875,0.0746612548828125,0.0543365478515625
1710531838320708000,2.2557080078125,-0.9928741455078125,0.0781097412109375,0.0517578125
1710531838330782200,2.2657822265625,-0.9922027587890625,0.0820770263671875,0.0509185791015625
1710531838340856000,2.27585595703125,-0.9909820556640625,0.0830230712890625,0.04876708984375
1710531838350930000,2.285929931640625,-0.9905548095703125,0.0882110595703125,0.04534912109375
1710531838361004000,2.296004150390625,-0.990997314453125,0.0902099609375,0.0435638427734375
1710531838371078000,2.306077880859375,-0.9933013916015625,0.093994140625,0.040740966796875
1710531838381152300,2.31615234375,-0.993988037109375,0.095733642578125,0.0417938232421875
1710531838391226000,2.32622607421875,-0.9938812255859375,0.09527587890625,0.0438995361328125
1710531838401300200,2.33630029296875,-0.99072265625,0.093231201171875,0.04638671875
1710531838411374000,2.3463740234375,-0.9902801513671875,0.090240478515625,0.0521697998046875
1710531838421448000,2.356447998046875,-0.991302490234375,0.085723876953125,0.0557098388671875
1710531838431522000,2.36652197265625,-0.9917449951171875,0.0825042724609375,0.0547943115234375
1710531838441596000,2.376595947265625,-0.9936981201171875,0.080841064453125,0.0552825927734375
1710531838451670300,2.386670166015625,-0.99725341796875,0.0781097412109375,0.0546722412109375
1710531838461744000,2.396744140625,-0.9964752197265625,0.07806396484375,0.05255126953125
1710531838471818000,2.40681787109375,-0.996551513671875,0.07879638671875,0.04998779296875
1710531838481892000,2.41689208984375,-0.996185302734375,0.0799713134765625,0.048553466796875
1710531838491966000,2.426966064453125,-0.99456787109375,0.0811004638671875,0.047637939453125
1710531838502040000,2.4370400390625,-0.9924163818359375,0.0815582275390625,0.0467681884765625
1710531838512114200,2.4471142578125,-0.99078369140625,0.0832366943359375,0.0502777099609375
1710531838522187000,2.45718701171875,-0.9905853271484375,0.084320068359375,0.050140380859375
1710531838532261000,2.46726123046875,-0.9910888671875,0.0855255126953125,0.0518646240234375
1710531838542335000,2.4773349609375,-1.001861572265625,0.087493896484375,0.0533905029296875
1710531838552409000,2.4874091796875,-0.990692138671875,0.0868377685546875,0.05389404296875
1710531838562483200,2.497483154296875,-0.9983673095703125,0.0879364013671875,0.052734375
1710531838572557000,2.50755712890625,-0.9922332763671875,0.0884552001953125,0.049652099609375
1710531838582631200,2.517631103515625,-0.9910736083984375,0.0873565673828125,0.0478668212890625
1710531838592705000,2.527705078125,-0.98907470703125,0.086151123046875,0.0458984375
1710531838602779100,2.537779052734375,-0.988800048828125,0.0864715576171875,0.045867919921875
1710531838612853000,2.54785302734375,-0.9939422607421875,0.085479736328125,0.0482177734375
1710531838622927000,2.557927001953125,-0.993438720703125,0.0847015380859375,0.0494232177734375
1710531838633001200,2.568001220703125,-0.9950408935546875,0.0849151611328125,0.0521087646484375
1710531838643075000,2.578074951171875,-0.995086669921875,0.0830230712890625,0.05230712890625
1710531838653149200,2.588149169921875,-0.9933013916015625,0.082733154296875,0.05157470703125
1710531838663223000,2.59822314453125,-0.9948577880859375,0.08038330078125,0.0505523681640625
1710531838673297200,2.608297119140625,-0.9954681396484375,0.0800018310546875,0.0511016845703125
1710531838683371000,2.61837109375,-0.9932098388671875,0.080474853515625,0.0480804443359375
1710531838693444900,2.62844482421875,-0.9945220947265625,0.0816650390625,0.0473785400390625
1710531838703519200,2.638519287109375,-0.99554443359375,0.0819854736328125,0.048248291015625
1710531838713593000,2.648593017578125,-0.9986419677734375,0.084259033203125,0.049224853515625
1710531838723667200,2.658667236328125,-0.99609375,0.0859832763671875,0.052337646484375
1710531838733741000,2.668740966796875,-0.9895477294921875,0.0861968994140625,0.0517578125
1710531838743815200,2.678815185546875,-0.988800048828125,0.0868072509765625,0.052337646484375
1710531838753889000,2.688888916015625,-0.9916534423828125,0.0841217041015625,0.0525970458984375
1710531838763963000,2.698962890625,-0.996307373046875,0.0837860107421875,0.0521240234375
1710531838774037200,2.709037353515625,-0.993927001953125,0.08709716796875,0.0525054931640625
1710531838784111000,2.719111083984375,-0.9920654296875,0.086883544921875,0.051025390625
1710531838794185200,2.729185302734375,-0.9906768798828125,0.0864105224609375,0.0503997802734375
1710531838804259000,2.739259033203125,-0.98858642578125,0.0870819091796875,0.048919677734375
1710531838814333000,2.7493330078125,-0.9951324462890625,0.087493896484375,0.0482940673828125
1710531838824407000,2.759406982421875,-0.996612548828125,0.08721923828125,0.046722412109375
1710531838834481000,2.76948095703125,-0.9962310791015625,0.088348388671875,0.0464935302734375
1710531838844554200,2.77955419921875,-0.9951324462890625,0.0871124267578125,0.0479278564453125
1710531838854628000,2.789628173828125,-0.9947967529296875,0.085693359375,0.0503692626953125
1710531838864702000,2.799701904296875,-0.993927001953125,0.0854644775390625,0.0519561767578125
1710531838874776000,2.809776123046875,-0.9928131103515625,0.08392333984375,0.0518951416015625
1710531838884850000,2.819849853515625,-0.991607666015625,0.0848388671875,0.05523681640625
1710531838894924300,2.82992431640625,-0.9933624267578125,0.08251953125,0.0560455322265625
1710531838904998100,2.839998046875,-0.9938507080078125,0.0800933837890625,0.0529022216796875
1710531838915072000,2.850072021484375,-0.995208740234375,0.080657958984375,0.0535125732421875
1710531838925146000,2.86014599609375,-0.9931640625,0.081512451171875,0.05181884765625
1710531838935220000,2.870219970703125,-0.993011474609375,0.0814971923828125,0.0500946044921875
1710531838945294000,2.880294189453125,-0.993072509765625,0.0845489501953125,0.04815673828125
1710531838955368000,2.890367919921875,-0.9929046630859375,0.0853424072265625,0.04730224609375
1710531838965442300,2.9004423828125,-0.9954986572265625,0.086395263671875,0.0498504638671875
1710531838975516200,2.91051611328125,-0.9935760498046875,0.0884246826171875,0.050811767578125
1710531838985590000,2.920590087890625,-0.9913330078125,0.088226318359375,0.05157470703125
1710531838995664100,2.9306640625,-0.9935760498046875,0.0865631103515625,0.05267333984375
1710531839005738000,2.940738037109375,-0.9949493408203125,0.086029052734375,0.0536956787109375
1710531839015812000,2.95081201171875,-0.9921417236328125,0.0851593017578125,0.0535125732421875
1710531839025886000,2.960885986328125,-0.9936676025390625,0.0839996337890625,0.05377197265625
1710531839035960300,2.970960205078125,-0.9907379150390625,0.0838775634765625,0.052581787109375
1710531839046034200,2.9810341796875,-0.9927978515625,0.0830230712890625,0.052215576171875
1710531839056108000,2.99110791015625,-0.994384765625,0.083892822265625,0.0515899658203125
1710531839066182100,3.00118212890625,-0.9951629638671875,0.085235595703125,0.0506591796875
1710531839076256000,3.011256103515625,-0.993072509765625,0.0842132568359375,0.04974365234375
1710531839086330000,3.021330078125,-0.9914093017578125,0.0839996337890625,0.0485992431640625
1710531839096404000,3.031404052734375,-0.993255615234375,0.086456298828125,0.0507965087890625
1710531839106478000,3.04147802734375,-0.9932098388671875,0.086822509765625,0.04876708984375
1710531839116552200,3.05155224609375,-0.993865966796875,0.085723876953125,0.0503692626953125
1710531839126626000,3.0616259765625,-0.995391845703125,0.086700439453125,0.0512542724609375
1710531839136700200,3.0717001953125,-0.9916839599609375,0.0853118896484375,0.052215576171875
1710531839146774000,3.08177392578125,-0.991241455078125,0.0843353271484375,0.052825927734375
1710531839156848000,3.09184814453125,-0.992919921875,0.0833282470703125,0.054168701171875
1710531839166921200,3.101921142578125,-0.99267578125,0.0842132568359375,0.053131103515625
1710531839176995000,3.1119951171875,-0.9951019287109375,0.084625244140625,0.051788330078125
1710531839187069200,3.122069091796875,-0.995147705078125,0.0862884521484375,0.0505828857421875
1710531839197143300,3.132143310546875,-0.9920806884765625,0.084686279296875,0.0503692626953125
1710531839207217200,3.142217041015625,-0.990020751953125,0.0866241455078125,0.0499725341796875
1710531839217291000,3.152291015625,-0.9933013916015625,0.0830841064453125,0.0495452880859375
1710531839227365400,3.162365478515625,-0.9911956787109375,0.08355712890625,0.0503082275390625
1710531839237439200,3.172439208984375,-0.9935455322265625,0.0817413330078125,0.051605224609375
1710531839247513300,3.182513427734375,-0.9957122802734375,0.080413818359375,0.050018310546875
1710531839257587200,3.192587158203125,-0.996002197265625,0.0810089111328125,0.049560546875
1710531839267661000,3.2026611328125,-1.0015869140625,0.0837249755859375,0.0504608154296875
1710531839277735200,3.212735107421875,-1.0023651123046875,0.0865325927734375,0.05010986328125
1710531839287809000,3.22280908203125,-0.9848175048828125,0.087066650390625,0.050048828125
1710531839297883400,3.23288330078125,-0.9868621826171875,0.086517333984375,0.049163818359375
1710531839307957200,3.242957275390625,-0.99749755859375,0.086700439453125,0.0522003173828125
1710531839318031400,3.25303125,-0.99853515625,0.0867462158203125,0.0532073974609375
1710531839328105200,3.263105224609375,-0.998077392578125,0.0872955322265625,0.0518341064453125
1710531839338179000,3.273178955078125,-0.989349365234375,0.082427978515625,0.0505218505859375
1710531839348253200,3.283253173828125,-0.9923858642578125,0.0796966552734375,0.0497894287109375
1710531839358327000,3.2933271484375,-0.992645263671875,0.075958251953125,0.05010986328125
1710531839368401400,3.3034013671875,-0.990814208984375,0.0727996826171875,0.050537109375
1710531839378475300,3.313475341796875,-0.99029541015625,0.0717010498046875,0.0509796142578125
1710531839388549000,3.323549072265625,-0.99383544921875,0.07354736328125,0.0520782470703125
1710531839398623200,3.333623291015625,-0.9941558837890625,0.0782012939453125,0.05279541015625
1710531839408697000,3.343697021484375,-0.9930877685546875,0.0821533203125,0.0560150146484375
1710531839418771200,3.353771240234375,-0.9935455322265625,0.0850372314453125,0.053466796875
1710531839428845000,3.363844970703125,-0.996124267578125,0.089324951171875,0.0535430908203125
1710531839438919400,3.37391943359375,-0.991546630859375,0.091522216796875,0.054595947265625
1710531839448993300,3.3839931640625,-0.9849395751953125,0.0905303955078125,0.052703857421875
1710531839459067100,3.394067138671875,-0.983612060546875,0.0893096923828125,0.050537109375
1710531839469141200,3.404141357421875,-0.9832916259765625,0.086822509765625,0.0473785400390625
1710531839479215000,3.414215087890625,-0.9847412109375,0.0882415771484375,0.045684814453125
1710531839489289200,3.424289306640625,-0.9835357666015625,0.0886993408203125,0.0477447509765625
1710531839499362300,3.4343623046875,-0.9854888916015625,0.088348388671875,0.0484466552734375
1710531839509437400,3.4444375,-0.9936370849609375,0.085723876953125,0.050323486328125
1710531839519510300,3.45451025390625,-0.9940948486328125,0.0855712890625,0.0510711669921875
1710531839529584000,3.464584228515625,-0.992279052734375,0.0838775634765625,0.05108642578125
1710531839539658200,3.474658203125,-0.99322509765625,0.0850372314453125,0.0477294921875
1710531839549732000,3.484732177734375,-0.99481201171875,0.085723876953125,0.04754638671875
1710531839559806200,3.49480615234375,-0.9911346435546875,0.0860137939453125,0.0462493896484375
1710531839569880300,3.50488037109375,-0.988311767578125,0.085662841796875,0.0471038818359375
1710531839579954200,3.5149541015625,-0.99462890625,0.0848846435546875,0.0491485595703125
1710531839590028300,3.5250283203125,-0.9976654052734375,0.0827789306640625,0.051177978515625
1710531839600102100,3.53510205078125,-0.9979705810546875,0.0796051025390625,0.0538330078125
1710531839610176000,3.545176025390625,-0.9971771240234375,0.07421875,0.057403564453125
1710531839620250000,3.55525,-0.996734619140625,0.0680084228515625,0.0583038330078125
1710531839630324200,3.56532421875,-1.0004425048828125,0.0612030029296875,0.0578155517578125
1710531839640398300,3.5753984375,-1.0021514892578125,0.0576629638671875,0.0601043701171875
1710531839650472200,3.58547216796875,-0.9912567138671875,0.0526580810546875,0.060760498046875
1710531839660546300,3.59554638671875,-1.0010223388671875,0.05078125,0.0599517822265625
1710531839670620200,3.6056201171875,-0.998809814453125,0.0504302978515625,0.057373046875
1710531839680694000,3.615694091796875,-1.00177001953125,0.05169677734375,0.053955078125
1710531839690768100,3.62576806640625,-1.0038604736328125,0.056732177734375,0.0507049560546875
1710531839700842200,3.63584228515625,-1.00042724609375,0.0638427734375,0.0497589111328125
1710531839710916400,3.645916259765625,-0.999786376953125,0.0677947998046875,0.04888916015625
1710531839720990200,3.655990234375,-0.996185302734375,0.0706787109375,0.049224853515625
1710531839731064300,3.666064208984375,-0.9945068359375,0.071990966796875,0.048370361328125
1710531839741138200,3.67613818359375,-0.9886932373046875,0.0720672607421875,0.0500946044921875
1710531839751212000,3.6862119140625,-0.9910888671875,0.06646728515625,0.051116943359375
1710531839761286100,3.6962861328125,-1.0005035400390625,0.060333251953125,0.053131103515625
1710531839771360300,3.7063603515625,-1.0008697509765625,0.0566253662109375,0.0548095703125
1710531839781434400,3.716434326171875,-0.9979400634765625,0.0523681640625,0.05621337890625
1710531839791508200,3.72650830078125,-0.9968719482421875,0.051727294921875,0.052764892578125
1710531839801582000,3.73658203125,-0.997833251953125,0.050628662109375,0.052154541015625
1710531839811656200,3.74665625,-0.9946136474609375,0.052398681640625,0.051971435546875
1710531839821730000,3.75672998046875,-0.9962005615234375,0.05438232421875,0.0512542724609375
1710531839831804200,3.76680419921875,-0.9977569580078125,0.0590362548828125,0.052337646484375
1710531839841878300,3.776878173828125,-0.9912109375,0.0620574951171875,0.053680419921875
1710531839851951000,3.786951171875,-0.9907684326171875,0.06390380859375,0.0554046630859375
1710531839862025200,3.797025146484375,-0.9942474365234375,0.066070556640625,0.05572509765625
1710531839872099000,3.80709912109375,-0.996307373046875,0.0664520263671875,0.05731201171875
1710531839882173200,3.817173095703125,-0.9915313720703125,0.0673980712890625,0.0584259033203125
1710531839892247300,3.827247314453125,-0.9871826171875,0.0674896240234375,0.058746337890625
1710531839902321200,3.837321044921875,-0.990142822265625,0.0653076171875,0.0587615966796875
1710531839912395300,3.847395263671875,-0.9925079345703125,0.0665130615234375,0.0547027587890625
1710531839922469000,3.85746923828125,-0.99322509765625,0.0652618408203125,0.0524749755859375
1710531839932543200,3.867543212890625,-0.9973297119140625,0.06622314453125,0.05078125
1710531839942617000,3.8776171875,-0.9959564208984375,0.066650390625,0.0464630126953125
1710531839952691200,3.887691162109375,-0.9942474365234375,0.067413330078125,0.046051025390625
1710531839962765300,3.897765380859375,-0.99615478515625,0.066253662109375,0.0470123291015625
1710531839972839200,3.907839111328125,-0.9954986572265625,0.0662078857421875,0.0504150390625
1710531839982913300,3.917913330078125,-0.998077392578125,0.0637664794921875,0.0504150390625
1710531839992987100,3.927987060546875,-0.9976348876953125,0.06182861328125,0.05242919921875
1710531840003061200,3.938061279296875,-0.9952850341796875,0.0619049072265625,0.052978515625
1710531840013135000,3.948135009765625,-0.995849609375,0.059051513671875,0.0548248291015625
1710531840023209200,3.958209228515625,-0.9976806640625,0.0584869384765625,0.0567474365234375
1710531840033283300,3.968283447265625,-0.997894287109375,0.0557861328125,0.0550537109375
1710531840043357200,3.978357177734375,-0.9974517822265625,0.0572357177734375,0.0543975830078125
1710531840053431300,3.988431396484375,-0.9955902099609375,0.0591888427734375,0.054046630859375
1710531840063505200,3.998505126953125,-0.993560791015625,0.06103515625,0.0552215576171875
1710531840073579300,4.008579345703125,-0.9932403564453125,0.0622406005859375,0.0541839599609375
1710531840083653000,4.018653076171875,-0.9950408935546875,0.0637359619140625,0.05303955078125
1710531840093727200,4.028727294921875,-0.99334716796875,0.064453125,0.05230712890625
1710531840103801300,4.03880126953125,-0.9920806884765625,0.0661468505859375,0.0531463623046875
1710531840113875200,4.048875244140625,-0.9917755126953125,0.063995361328125,0.0531768798828125
1710531840123949300,4.05894921875,-0.9929046630859375,0.06304931640625,0.0542449951171875
1710531840134023200,4.069023193359375,-0.9957122802734375,0.0643310546875,0.0546112060546875
1710531840144097000,4.079096923828125,-0.9975433349609375,0.0637054443359375,0.05401611328125
1710531840154171100,4.089171142578125,-0.9965362548828125,0.0616912841796875,0.0524749755859375
1710531840164245200,4.099245361328125,-0.99603271484375,0.0617828369140625,0.05517578125
1710531840174319400,4.1093193359375,-0.9939727783203125,0.0627593994140625,0.054412841796875
1710531840184393500,4.1193935546875,-0.9955291748046875,0.0609283447265625,0.0540008544921875
1710531840194467600,4.129467529296875,-0.9969635009765625,0.058868408203125,0.053955078125
1710531840204541400,4.13954150390625,-0.9951934814453125,0.0590362548828125,0.05596923828125
1710531840214614300,4.1496142578125,-0.995513916015625,0.05718994140625,0.055694580078125
1710531840224688600,4.159688720703125,-0.995574951171875,0.0568389892578125,0.05572509765625
1710531840234762500,4.169762451171875,-0.9962158203125,0.0590667724609375,0.05438232421875
1710531840244836600,4.179836669921875,-0.99462890625,0.059478759765625,0.0522003173828125
1710531840254910500,4.189910400390625,-0.9922637939453125,0.05816650390625,0.0533905029296875
1710531840264984300,4.199984375,-0.9944000244140625,0.0577392578125,0.0543212890625
1710531840275058400,4.210058349609375,-0.9970703125,0.058135986328125,0.052520751953125
1710531840285132300,4.22013232421875,-0.995819091796875,0.0565185546875,0.0545806884765625
1710531840295206700,4.23020654296875,-0.99237060546875,0.05670166015625,0.055328369140625
1710531840305280500,4.240280517578125,-0.995330810546875,0.0565948486328125,0.055633544921875
1710531840315354400,4.250354248046875,-0.99798583984375,0.05712890625,0.058563232421875
1710531840325428500,4.260428466796875,-1.002777099609375,0.057342529296875,0.058013916015625
1710531840335502300,4.27050244140625,-1.000518798828125,0.0588226318359375,0.0589752197265625
1710531840345576400,4.280576416015625,-0.9822998046875,0.058258056640625,0.0571746826171875
1710531840355650300,4.290650390625,-0.99468994140625,0.0593109130859375,0.0556640625
1710531840365724700,4.300724609375,-0.9925537109375,0.0598297119140625,0.0565338134765625
1710531840375798500,4.310798583984375,-0.9931640625,0.0579681396484375,0.0572052001953125
1710531840385872400,4.320872314453125,-1.0057525634765625,0.06048583984375,0.0560302734375
1710531840395946500,4.330946533203125,-0.994903564453125,0.05987548828125,0.0548553466796875
1710531840406020400,4.341020263671875,-0.992950439453125,0.0596160888671875,0.0547027587890625
1710531840416094500,4.351094482421875,-0.9953765869140625,0.0589141845703125,0.0560760498046875
1710531840426168300,4.361168212890625,-0.99420166015625,0.0553741455078125,0.0545196533203125
1710531840436242400,4.371242431640625,-0.9925994873046875,0.0542449951171875,0.0533905029296875
1710531840446316500,4.381316650390625,-0.995849609375,0.0513153076171875,0.0557098388671875
1710531840456390400,4.391390380859375,-0.9967498779296875,0.0513763427734375,0.056549072265625
1710531840466464500,4.401464599609375,-0.9921417236328125,0.0515594482421875,0.0574951171875
1710531840476538400,4.411538330078125,-0.997894287109375,0.051513671875,0.058685302734375
1710531840486612500,4.421612548828125,-1.0000457763671875,0.0517730712890625,0.059783935546875
1710531840496686300,4.431686279296875,-0.99798583984375,0.05352783203125,0.061279296875
1710531840506760400,4.441760498046875,-0.9962615966796875,0.0527801513671875,0.0606842041015625
1710531840516834600,4.45183447265625,-0.993743896484375,0.0540924072265625,0.06048583984375
1710531840526908400,4.461908447265625,-0.9916839599609375,0.0524749755859375,0.0599517822265625
1710531840536982500,4.471982421875,-0.9956817626953125,0.0532379150390625,0.056121826171875
1710531840547056400,4.482056396484375,-0.993743896484375,0.053741455078125,0.0548858642578125
1710531840557130200,4.492130126953125,-0.9925537109375,0.0533447265625,0.0549774169921875
1710531840567204400,4.502204345703125,-0.9923553466796875,0.054107666015625,0.05450439453125
1710531840577278500,4.512278564453125,-0.9929656982421875,0.054656982421875,0.0572662353515625
1710531840587352600,4.5223525390625,-0.9944915771484375,0.0554656982421875,0.057373046875
1710531840597425400,4.53242529296875,-0.9946136474609375,0.0551605224609375,0.0582427978515625
1710531840607499300,4.542499267578125,-0.9947967529296875,0.0558013916015625,0.0612030029296875
1710531840617573400,4.552573486328125,-0.99603271484375,0.0546875,0.0618896484375
1710531840627647500,4.5626474609375,-0.9951629638671875,0.0531768798828125,0.0626373291015625
1710531840637721600,4.5727216796875,-0.995849609375,0.0530548095703125,0.0615081787109375
1710531840647795500,4.58279541015625,-0.9951171875,0.050506591796875,0.061614990234375
1710531840657869300,4.592869384765625,-0.994720458984375,0.05035400390625,0.059173583984375
1710531840667943400,4.602943359375,-0.996368408203125,0.049957275390625,0.0587158203125
1710531840678017300,4.613017333984375,-0.9967803955078125,0.0501556396484375,0.05859375
1710531840688091400,4.62309130859375,-0.989715576171875,0.050567626953125,0.060882568359375
1710531840698165500,4.63316552734375,-1.0063323974609375,0.0500946044921875,0.06182861328125
1710531840708239600,4.643239501953125,-0.9962310791015625,0.052276611328125,0.0619659423828125
1710531840718313500,4.6533134765625,-0.993865966796875,0.0517120361328125,0.0619049072265625
1710531840728387300,4.66338720703125,-0.9983978271484375,0.052154541015625,0.060150146484375
1710531840738461400,4.67346142578125,-0.9962310791015625,0.052764892578125,0.059112548828125
1710531840748535300,4.683535400390625,-0.99237060546875,0.05242919921875,0.0563507080078125
1710531840758609400,4.693609375,-0.9918975830078125,0.052398681640625,0.0561065673828125
1710531840768683500,4.70368359375,-0.9928436279296875,0.0524749755859375,0.0569610595703125
1710531840778757600,4.713757568359375,-0.9939117431640625,0.052093505859375,0.0585479736328125
1710531840788831500,4.72383154296875,-0.9925079345703125,0.0521697998046875,0.059356689453125
1710531840798905300,4.7339052734375,-0.9923858642578125,0.05126953125,0.0615234375
1710531840808979500,4.7439794921875,-0.9972686767578125,0.049468994140625,0.05975341796875
1710531840819053300,4.75405322265625,-1.0036163330078125,0.04779052734375,0.0613861083984375
1710531840829127400,4.76412744140625,-0.9987335205078125,0.0463714599609375,0.0596160888671875
1710531840839201500,4.774201416015625,-0.9963836669921875,0.0462646484375,0.058990478515625
1710531840849275400,4.784275390625,-0.9955902099609375,0.046142578125,0.0595245361328125
1710531840859349500,4.794349609375,-0.9954376220703125,0.0474700927734375,0.056915283203125
1710531840869423400,4.80442333984375,-0.9942474365234375,0.0485687255859375,0.0574188232421875
1710531840879497500,4.81449755859375,-0.99749755859375,0.04852294921875,0.0608367919921875
1710531840889571300,4.8245712890625,-1.000030517578125,0.0497283935546875,0.06298828125
1710531840899645400,4.8346455078125,-0.999755859375,0.050567626953125,0.0640716552734375
1710531840909719600,4.844719482421875,-0.9962921142578125,0.0516204833984375,0.06591796875
1710531840919793400,4.85479345703125,-0.995758056640625,0.0523223876953125,0.0639190673828125
1710531840929867500,4.864867431640625,-0.99609375,0.05078125,0.0630340576171875
1710531840939941400,4.87494140625,-0.9932861328125,0.0517425537109375,0.061737060546875
1710531840950015500,4.885015380859375,-0.993072509765625,0.0501556396484375,0.0599822998046875
1710531840960089300,4.89508935546875,-0.994140625,0.0509796142578125,0.0608978271484375
1710531840970163500,4.90516357421875,-0.996795654296875,0.050384521484375,0.05767822265625
1710531840980236500,4.915236572265625,-0.994110107421875,0.048248291015625,0.058135986328125
1710531840990310400,4.925310302734375,-0.9942779541015625,0.0496063232421875,0.0562896728515625
1710531841000384500,4.935384521484375,-0.9965972900390625,0.0509490966796875,0.0567474365234375
1710531841010458400,4.945458251953125,-0.9950714111328125,0.0499420166015625,0.0567474365234375
1710531841020532500,4.955532470703125,-0.992523193359375,0.0517730712890625,0.057281494140625
1710531841030606600,4.965606689453125,-0.994720458984375,0.04974365234375,0.0571136474609375
1710531841040680400,4.975680419921875,-0.995574951171875,0.0514373779296875,0.0574798583984375
1710531841050754600,4.985754638671875,-0.9945220947265625,0.050506591796875,0.0617218017578125
1710531841060828400,4.995828369140625,-0.995849609375,0.0499267578125,0.061279296875
1710531841070902300,5.00590234375,-0.995819091796875,0.048736572265625,0.060546875
1710531841080976400,5.015976318359375,-0.9967498779296875,0.049285888671875,0.061279296875
1710531841091050500,5.026050537109375,-0.9945220947265625,0.049835205078125,0.0614013671875
1710531841101124600,5.03612451171875,-0.9953460693359375,0.0472259521484375,0.060943603515625
1710531841111198500,5.046198486328125,-0.99786376953125,0.0483856201171875,0.060333251953125
1710531841121272600,5.0562724609375,-0.996826171875,0.0485687255859375,0.0583343505859375
1710531841131346400,5.066346435546875,-0.997314453125,0.0478973388671875,0.061737060546875
1710531841141420300,5.076420166015625,-0.993560791015625,0.048828125,0.0589447021484375
1710531841151494400,5.086494384765625,-0.995025634765625,0.0491180419921875,0.06158447265625
1710531841161568500,5.096568603515625,-0.9951324462890625,0.0482940673828125,0.061614990234375
1710531841171642600,5.106642578125,-0.995269775390625,0.047088623046875,0.0621337890625
1710531841181716500,5.116716552734375,-0.9961395263671875,0.0482330322265625,0.0609283447265625
1710531841191790800,5.126790771484375,-0.99688720703125,0.04815673828125,0.060577392578125
1710531841201865000,5.136864990234375,-0.995880126953125,0.048675537109375,0.0583038330078125
1710531841211938800,5.146938720703125,-0.995880126953125,0.0500030517578125,0.060028076171875
1710531841222012700,5.1570126953125,-0.99688720703125,0.0498504638671875,0.0598602294921875
1710531841232086800,5.167086669921875,-0.99383544921875,0.049285888671875,0.05792236328125
1710531841242161000,5.177160888671875,-0.9947509765625,0.0509185791015625,0.060028076171875
1710531841252235000,5.187235107421875,-0.9965057373046875,0.0518646240234375,0.060791015625
1710531841262308900,5.197308837890625,-0.9962158203125,0.050689697265625,0.06048583984375
1710531841272383000,5.207383056640625,-0.995330810546875,0.051666259765625,0.0620574951171875
1710531841282456800,5.217456787109375,-0.9943389892578125,0.05035400390625,0.0615234375
1710531841292530700,5.22753076171875,-0.9933929443359375,0.04949951171875,0.0604705810546875
1710531841302604800,5.237604736328125,-0.99371337890625,0.04730224609375,0.060211181640625
1710531841312679000,5.247678955078125,-0.9952545166015625,0.0460662841796875,0.0607147216796875
1710531841322753000,5.2577529296875,-0.997406005859375,0.046142578125,0.061676025390625
1710531841332827000,5.267826904296875,-0.997100830078125,0.047088623046875,0.0592803955078125
1710531841342900700,5.277900634765625,-1.001251220703125,0.047943115234375,0.0607452392578125
1710531841352974800,5.287974853515625,-1.006683349609375,0.0480804443359375,0.0619049072265625
1710531841363048700,5.298048583984375,-0.99212646484375,0.0501251220703125,0.0606842041015625
1710531841373122800,5.308122802734375,-0.986083984375,0.04998779296875,0.059967041015625
1710531841383196000,5.31819580078125,-0.9968414306640625,0.04931640625,0.0612945556640625
1710531841393269800,5.328269775390625,-0.9887237548828125,0.050628662109375,0.0611114501953125
1710531841403344000,5.33834375,-0.9960479736328125,0.0510406494140625,0.0615386962890625
1710531841413417700,5.348417724609375,-1.0040130615234375,0.0529327392578125,0.0585174560546875
1710531841423491800,5.358491943359375,-0.9966583251953125,0.05194091796875,0.0565338134765625
1710531841433566000,5.36856591796875,-0.9961700439453125,0.0499420166015625,0.0578765869140625
1710531841443639800,5.378639892578125,-0.9989471435546875,0.0487823486328125,0.059906005859375
1710531841453714000,5.3887138671875,-0.9945068359375,0.0465087890625,0.0609283447265625
1710531841463787800,5.398787841796875,-0.994659423828125,0.0442657470703125,0.060150146484375
1710531841473862000,5.40886181640625,-0.997100830078125,0.0432891845703125,0.0611114501953125
1710531841483935700,5.418935791015625,-0.997222900390625,0.0453643798828125,0.0617828369140625
1710531841494009900,5.429009765625,-0.9949798583984375,0.0451812744140625,0.062896728515625
1710531841504084000,5.439083984375,-0.9970550537109375,0.0474853515625,0.0661773681640625
1710531841514157800,5.44915771484375,-0.9976959228515625,0.048004150390625,0.0663299560546875
1710531841524232000,5.45923193359375,-0.995391845703125,0.0508880615234375,0.064208984375
1710531841534305800,5.469305908203125,-0.995574951171875,0.0486907958984375,0.0633697509765625
1710531841544380000,5.4793798828125,-0.996429443359375,0.0475616455078125,0.06024169921875
1710531841554453800,5.489453857421875,-0.9930267333984375,0.046966552734375,0.058441162109375
1710531841564527900,5.49952783203125,-0.9949493408203125,0.048431396484375,0.0585174560546875
1710531841574602000,5.50960205078125,-0.994232177734375,0.049041748046875,0.057952880859375
1710531841584675800,5.51967578125,-0.9943695068359375,0.0499725341796875,0.0583343505859375
1710531841594750000,5.52975,-0.9951019287109375,0.0505218505859375,0.0579833984375
1710531841604823800,5.53982373046875,-0.994293212890625,0.0528106689453125,0.06146240234375
1710531841614898000,5.54989794921875,-0.993438720703125,0.053253173828125,0.0636138916015625
1710531841624971800,5.5599716796875,-0.99444580078125,0.0541229248046875,0.063385009765625
1710531841635046000,5.5700458984375,-0.99530029296875,0.052947998046875,0.064544677734375
1710531841645120000,5.5801201171875,-0.9975738525390625,0.050994873046875,0.0637664794921875
1710531841655193900,5.59019384765625,-0.99578857421875,0.0500030517578125,0.062469482421875
1710531841665268000,5.60026806640625,-0.9959259033203125,0.0483551025390625,0.061767578125
1710531841675341800,5.610341796875,-0.9959564208984375,0.0464935302734375,0.0596923828125
1710531841685416000,5.620416015625,-0.995330810546875,0.0461273193359375,0.0572509765625
1710531841695489800,5.63048974609375,-0.99615478515625,0.047027587890625,0.058197021484375
1710531841705564000,5.64056396484375,-0.993865966796875,0.047088623046875,0.05926513671875
1710531841715638000,5.650637939453125,-0.997161865234375,0.0482940673828125,0.062286376953125
1710531841725712000,5.6607119140625,-1.0033416748046875,0.05169677734375,0.0644989013671875
1710531841735786000,5.670785888671875,-0.99066162109375,0.0543365478515625,0.065704345703125
1710531841745859800,5.68085986328125,-0.9958648681640625,0.054351806640625,0.065765380859375
1710531841755933700,5.69093359375,-0.9960479736328125,0.05242919921875,0.064422607421875
1710531841766007800,5.7010078125,-0.9957275390625,0.0519256591796875,0.05999755859375
1710531841776082000,5.71108203125,-0.99212646484375,0.0518646240234375,0.0576934814453125
1710531841786156000,5.721156005859375,-0.9930267333984375,0.0521087646484375,0.0576019287109375
1710531841796230000,5.73122998046875,-0.9925384521484375,0.05322265625,0.059722900390625
1710531841806302700,5.741302734375,-0.993865966796875,0.053192138671875,0.05999755859375
1710531841816376800,5.751376953125,-0.9939422607421875,0.053070068359375,0.0625
1710531841826451000,5.761450927734375,-0.99658203125,0.051727294921875,0.0619354248046875
1710531841836525000,5.771525146484375,-0.9994354248046875,0.05279541015625,0.0635528564453125
1710531841846599000,5.781598876953125,-0.997161865234375,0.050445556640625,0.061767578125
1710531841856672800,5.7916728515625,-0.9980621337890625,0.048095703125,0.0601959228515625
1710531841866747000,5.801746826171875,-0.997650146484375,0.0502471923828125,0.060943603515625
1710531841876820700,5.81182080078125,-0.9967498779296875,0.0505218505859375,0.0592803955078125
1710531841886894800,5.821894775390625,-0.9951324462890625,0.0519866943359375,0.0576629638671875
1710531841896969000,5.831968994140625,-0.9940185546875,0.0540771484375,0.0593109130859375
1710531841907043000,5.84204296875,-0.9940185546875,0.056182861328125,0.0601348876953125
1710531841917117000,5.852116943359375,-0.9961700439453125,0.0570220947265625,0.06146240234375
1710531841927190800,5.862190673828125,-0.9979705810546875,0.056915283203125,0.0609283447265625
1710531841937265000,5.872264892578125,-0.9960174560546875,0.0548095703125,0.05902099609375
1710531841947338800,5.8823388671875,-0.9963226318359375,0.053741455078125,0.0594024658203125
1710531841957412900,5.892412841796875,-0.9962921142578125,0.0517730712890625,0.059326171875
1710531841967487000,5.902487060546875,-0.995697021484375,0.05413818359375,0.0595703125
1710531841977560800,5.912560791015625,-0.990142822265625,0.0564727783203125,0.0597076416015625
1710531841987635000,5.922635009765625,-0.9901885986328125,0.0556488037109375,0.0593414306640625
1710531841997708800,5.932708740234375,-0.9931793212890625,0.054595947265625,0.057769775390625
1710531842007783000,5.942782958984375,-0.9952545166015625,0.053955078125,0.0548858642578125
1710531842017856800,5.952856689453125,-0.996612548828125,0.0558319091796875,0.05780029296875
1710531842027931000,5.962930908203125,-0.9949188232421875,0.0570220947265625,0.058502197265625
1710531842038005000,5.9730048828125,-0.9981536865234375,0.0565185546875,0.057403564453125
1710531842048078800,5.983078857421875,-0.9988861083984375,0.0571441650390625,0.059783935546875
1710531842058153000,5.993153076171875,-0.9929351806640625,0.057098388671875,0.0578155517578125
1710531842068226800,6.003226806640625,-0.9932708740234375,0.0573272705078125,0.0596466064453125
1710531842078301000,6.013301025390625,-0.996063232421875,0.0538330078125,0.0585784912109375
1710531842088374800,6.023374755859375,-0.9952545166015625,0.0518035888671875,0.0578765869140625
1710531842098448600,6.03344873046875,-0.9947052001953125,0.0525360107421875,0.0598297119140625
1710531842108523000,6.04352294921875,-0.9942474365234375,0.0525970458984375,0.0592041015625
1710531842118596900,6.053596923828125,-0.995025634765625,0.05242919921875,0.0577545166015625
1710531842128671000,6.0636708984375,-0.995574951171875,0.0531005859375,0.056640625
1710531842138744800,6.073744873046875,-0.995147705078125,0.0557098388671875,0.05474853515625
1710531842148819000,6.08381884765625,-0.99267578125,0.0558929443359375,0.056243896484375
1710531842158892800,6.093892822265625,-0.9947967529296875,0.0565032958984375,0.056304931640625
1710531842168966700,6.103966552734375,-0.9980316162109375,0.0571441650390625,0.057342529296875
1710531842179041000,6.114041015625,-0.995025634765625,0.0586090087890625,0.0592041015625
1710531842189114400,6.1241142578125,-0.9962005615234375,0.0583343505859375,0.0603485107421875
1710531842199188500,6.1341884765625,-0.9941864013671875,0.0595855712890625,0.0600433349609375
1710531842209262300,6.144262451171875,-0.9943389892578125,0.0575408935546875,0.0587310791015625
1710531842219336200,6.154336181640625,-0.9957275390625,0.0577850341796875,0.0605621337890625
1710531842229410300,6.164410400390625,-0.995941162109375,0.056732177734375,0.0576324462890625
1710531842239484400,6.174484375,-0.9968109130859375,0.0558319091796875,0.0571136474609375
1710531842249557200,6.18455712890625,-0.9961700439453125,0.055633544921875,0.0565948486328125
1710531842259631400,6.19463134765625,-0.9955291748046875,0.055023193359375,0.055572509765625
1710531842269705200,6.204705322265625,-0.9959564208984375,0.05462646484375,0.05682373046875
1710531842279779300,6.214779296875,-0.9965667724609375,0.054168701171875,0.055938720703125
1710531842289853400,6.224853515625,-0.9935760498046875,0.054534912109375,0.05694580078125
1710531842299927600,6.234927490234375,-0.995574951171875,0.0576324462890625,0.0573883056640625
1710531842310001400,6.24500146484375,-0.9972381591796875,0.0591278076171875,0.05657958984375
1710531842320075300,6.2550751953125,-0.9936370849609375,0.0591888427734375,0.0566864013671875
1710531842330149400,6.2651494140625,-0.9932708740234375,0.059112548828125,0.056549072265625
1710531842340223200,6.27522314453125,-0.9951629638671875,0.05853271484375,0.0565032958984375
1710531842350297300,6.28529736328125,-0.99432373046875,0.0567779541015625,0.056060791015625
1710531842360371500,6.295371337890625,-0.994537353515625,0.0549163818359375,0.0564727783203125
1710531842370445300,6.3054453125,-0.9961090087890625,0.0558319091796875,0.0557708740234375
1710531842380519400,6.31551953125,-0.995819091796875,0.05548095703125,0.0552215576171875
1710531842390593300,6.32559326171875,-1.0022125244140625,0.0550384521484375,0.0567626953125
1710531842400667400,6.33566748046875,-1.000579833984375,0.0554046630859375,0.05657958984375
1710531842410741200,6.3457412109375,-0.98577880859375,0.056243896484375,0.0543212890625
1710531842420815400,6.3558154296875,-0.9960784912109375,0.0579376220703125,0.053924560546875
1710531842430889500,6.365889404296875,-0.9939422607421875,0.0590667724609375,0.0553741455078125
1710531842440963300,6.37596337890625,-0.9907073974609375,0.0618133544921875,0.0586395263671875
1710531842451037400,6.386037353515625,-1.0006561279296875,0.0623626708984375,0.058502197265625
1710531842461111300,6.396111328125,-0.9961700439453125,0.06072998046875,0.0545501708984375
1710531842471185400,6.406185302734375,-0.9881439208984375,0.0611114501953125,0.0548858642578125
1710531842481259300,6.41625927734375,-0.9954071044921875,0.05853271484375,0.0538177490234375
1710531842491333400,6.42633349609375,-0.9976043701171875,0.0569305419921875,0.0548095703125
1710531842501407500,6.436407470703125,-0.9934539794921875,0.05340576171875,0.055572509765625
1710531842511481300,6.4464814453125,-0.993988037109375,0.0519866943359375,0.0572052001953125
1710531842521555500,6.456555419921875,-1.000518798828125,0.0516815185546875,0.0579833984375
1710531842531629300,6.46662939453125,-1.0009002685546875,0.0515594482421875,0.0584564208984375
1710531842541703400,6.476703369140625,-1.0018463134765625,0.0549774169921875,0.0594024658203125
1710531842551777300,6.48677734375,-0.9994659423828125,0.0561676025390625,0.0597381591796875
1710531842561851100,6.49685107421875,-0.9954376220703125,0.05792236328125,0.05755615234375
1710531842571925500,6.506925537109375,-0.9951019287109375,0.05755615234375,0.05743408203125
1710531842581999400,6.516999267578125,-0.990692138671875,0.0593719482421875,0.0565032958984375
1710531842592073500,6.527073486328125,-0.9925537109375,0.0588226318359375,0.0569000244140625
1710531842602147300,6.537147216796875,-0.992401123046875,0.058441162109375,0.054473876953125
1710531842612221400,6.547221435546875,-0.99420166015625,0.0587921142578125,0.0539703369140625
1710531842622295300,6.55729541015625,-0.99383544921875,0.059967041015625,0.0531158447265625
1710531842632369200,6.567369140625,-0.993682861328125,0.060791015625,0.0511016845703125
1710531842642443500,6.577443603515625,-0.9962921142578125,0.0623779296875,0.0543212890625
1710531842652517400,6.587517333984375,-0.9953765869140625,0.0632476806640625,0.0562896728515625
1710531842662591500,6.597591552734375,-0.9925079345703125,0.0628204345703125,0.0562286376953125
1710531842672665300,6.607665283203125,-0.99609375,0.0603790283203125,0.05853271484375
1710531842682739200,6.6177392578125,-0.996337890625,0.0601959228515625,0.0582427978515625
1710531842692813300,6.627813232421875,-0.9971160888671875,0.0595550537109375,0.05731201171875
1710531842702887400,6.637887451171875,-0.9964752197265625,0.0575714111328125,0.0557708740234375
1710531842712960500,6.64796044921875,-0.9948883056640625,0.0564727783203125,0.0554351806640625
1710531842723034400,6.658034423828125,-0.9953765869140625,0.056915283203125,0.0556640625
1710531842733108200,6.668108154296875,-0.9936981201171875,0.0567779541015625,0.0547027587890625
1710531842743182300,6.678182373046875,-0.99212646484375,0.05645751953125,0.05413818359375
1710531842753256400,6.68825634765625,-0.995361328125,0.056976318359375,0.0561676025390625
1710531842763330600,6.69833056640625,-1.005096435546875,0.0590362548828125,0.0565032958984375
1710531842773404400,6.708404296875,-0.9886016845703125,0.06036376953125,0.05914306640625
1710531842783478300,6.718478271484375,-1.0011749267578125,0.060394287109375,0.0569610595703125
1710531842793552400,6.728552490234375,-0.9980010986328125,0.0619964599609375,0.055145263671875
1710531842803626200,6.738626220703125,-0.9910430908203125,0.0613555908203125,0.0526885986328125
1710531842813700400,6.748700439453125,-0.995758056640625,0.06072998046875,0.049835205078125
1710531842823774500,6.7587744140625,-0.992950439453125,0.0608673095703125,0.0523529052734375
1710531842833848600,6.7688486328125,-0.994659423828125,0.0602264404296875,0.0516357421875
1710531842843922400,6.77892236328125,-0.9913482666015625,0.0614166259765625,0.05419921875
1710531842853996300,6.788996337890625,-0.9903411865234375,0.0598907470703125,0.0567779541015625
1710531842864070400,6.7990703125,-0.9961090087890625,0.058746337890625,0.05657958984375
1710531842874144300,6.809144287109375,-0.9990386962890625,0.056396484375,0.0577850341796875
1710531842884218400,6.81921826171875,-0.9965362548828125,0.054473876953125,0.059173583984375
1710531842894292500,6.82929248046875,-0.999237060546875,0.0561676025390625,0.056396484375
1710531842904366300,6.839366455078125,-0.9984588623046875,0.0558013916015625,0.0535125732421875
1710531842914440400,6.8494404296875,-0.997161865234375,0.0591583251953125,0.052947998046875
1710531842924514300,6.859514404296875,-0.997711181640625,0.0611114501953125,0.0519561767578125
1710531842934588400,6.86958837890625,-0.9963836669921875,0.064666748046875,0.054046630859375
1710531842944662300,6.879662353515625,-0.994842529296875,0.065765380859375,0.0557098388671875
1710531842954736400,6.889736328125,-0.993072509765625,0.0647125244140625,0.0580291748046875
1710531842964810500,6.899810546875,-0.9940643310546875,0.0642547607421875,0.058929443359375
1710531842974884400,6.90988427734375,-0.9945220947265625,0.0623016357421875,0.0575408935546875
1710531842984958500,6.91995849609375,-0.9925994873046875,0.0619049072265625,0.057708740234375
1710531842995032300,6.9300322265625,-0.992767333984375,0.05926513671875,0.055389404296875
1710531843005106400,6.9401064453125,-0.99090576171875,0.0594482421875,0.0533905029296875
1710531843015180300,6.95018017578125,-0.99267578125,0.0581817626953125,0.052001953125
1710531843025254400,6.96025439453125,-0.9925537109375,0.0594482421875,0.0481719970703125
1710531843035328500,6.97032861328125,-0.995758056640625,0.0592193603515625,0.0510101318359375
1710531843045402400,6.98040234375,-0.996551513671875,0.06170654296875,0.05126953125
1710531843055476500,6.9904765625,-0.998382568359375,0.0627899169921875,0.05419921875
1710531843065550300,7.00055029296875,-0.9958648681640625,0.0637054443359375,0.05621337890625
1710531843075624400,7.01062451171875,-0.997314453125,0.063385009765625,0.05810546875
1710531843085698300,7.0206982421875,-0.9940948486328125,0.061004638671875,0.0583343505859375
1710531843095772200,7.030772216796875,-0.9927825927734375,0.059051513671875,0.0592193603515625
1710531843105846500,7.040846435546875,-0.9918060302734375,0.058990478515625,0.057373046875
1710531843115920400,7.05092041015625,-0.9951629638671875,0.0567626953125,0.0565338134765625
1710531843125994500,7.060994384765625,-0.9941253662109375,0.054840087890625,0.05450439453125
1710531843136068400,7.071068359375,-0.9932861328125,0.055145263671875,0.0534515380859375
1710531843146142500,7.081142578125,-0.9964599609375,0.0553131103515625,0.0511627197265625
1710531843156216300,7.09121630859375,-0.9972991943359375,0.0577239990234375,0.0497894287109375
1710531843166290200,7.101290283203125,-0.995361328125,0.0585784912109375,0.0512847900390625
1710531843176364500,7.111364501953125,-0.9967803955078125,0.06085205078125,0.052886962890625
1710531843186440400,7.1214404296875,-0.9970550537109375,0.064849853515625,0.0560150146484375
1710531843196514600,7.1315146484375,-0.9944610595703125,0.0650787353515625,0.059234619140625
1710531843206588400,7.14158837890625,-0.9947052001953125,0.0642547607421875,0.058197021484375
1710531843216662500,7.15166259765625,-0.9939727783203125,0.0641326904296875,0.060211181640625
1710531843226736600,7.161736572265625,-0.99285888671875,0.061737060546875,0.05987548828125
1710531843236810500,7.171810546875,-0.9925384521484375,0.0589752197265625,0.0614013671875
1710531843246884600,7.181884521484375,-0.993255615234375,0.0586700439453125,0.0603790283203125
1710531843256958500,7.19195849609375,-0.9950103759765625,0.056610107421875,0.057769775390625
1710531843267032300,7.2020322265625,-0.99658203125,0.0557861328125,0.0569915771484375
1710531843277106400,7.2121064453125,-0.99493408203125,0.05633544921875,0.0549468994140625
1710531843287180500,7.2221806640625,-0.992462158203125,0.05804443359375,0.0522918701171875
1710531843297254700,7.232254638671875,-0.99505615234375,0.0578155517578125,0.053558349609375
1710531843307328500,7.24232861328125,-0.9955291748046875,0.059112548828125,0.0539093017578125
1710531843317402600,7.252402587890625,-0.99383544921875,0.0619659423828125,0.0550689697265625
1710531843327476500,7.2624765625,-0.995025634765625,0.059967041015625,0.0551910400390625
1710531843337550300,7.27255029296875,-0.9962615966796875,0.0611114501953125,0.0574188232421875
1710531843347624400,7.28262451171875,-0.995147705078125,0.0601654052734375,0.056488037109375
1710531843357698600,7.292698486328125,-0.9973602294921875,0.0602264404296875,0.0578155517578125
1710531843367772700,7.302772705078125,-0.9937286376953125,0.0608978271484375,0.057891845703125
1710531843377846500,7.312846435546875,-0.9942474365234375,0.0600433349609375,0.0578155517578125
1710531843387920400,7.32292041015625,-0.9944915771484375,0.058135986328125,0.0580596923828125
1710531843397994500,7.332994384765625,-0.9932098388671875,0.0559539794921875,0.055908203125
1710531843408068400,7.343068359375,-0.99493408203125,0.05584716796875,0.05584716796875
1710531843418142500,7.353142578125,-0.994415283203125,0.0547027587890625,0.0576019287109375
1710531843428216600,7.363216552734375,-0.99658203125,0.0545501708984375,0.0578155517578125
1710531843438290700,7.373290771484375,-1.0016937255859375,0.0570220947265625,0.058258056640625
1710531843448364500,7.383364501953125,-1.0019073486328125,0.05902099609375,0.0594024658203125
1710531843458438400,7.3934384765625,-0.9863739013671875,0.0584564208984375,0.05712890625
1710531843468512500,7.403512451171875,-0.9952239990234375,0.0602874755859375,0.05499267578125
1710531843478586400,7.41358642578125,-1,0.0608978271484375,0.057830810546875
1710531843488660500,7.423660400390625,-0.9930267333984375,0.0628814697265625,0.058746337890625
1710531843498734600,7.433734619140625,-0.9979248046875,0.0648651123046875,0.05731201171875
1710531843508808700,7.44380859375,-0.9936065673828125,0.0630035400390625,0.0560150146484375
1710531843518882600,7.453882568359375,-0.9908599853515625,0.0592041015625,0.0550384521484375
1710531843528956400,7.463956298828125,-0.996185302734375,0.05731201171875,0.0564727783203125
1710531843539030500,7.474030517578125,-0.996185302734375,0.05291748046875,0.0572509765625
1710531843549104400,7.4841044921875,-0.9925537109375,0.0484466552734375,0.0566253662109375
1710531843559178500,7.494178466796875,-0.99609375,0.0471954345703125,0.058746337890625
1710531843569252600,7.504252685546875,-1.00054931640625,0.0491485595703125,0.05908203125
1710531843579326500,7.514326416015625,-0.9979400634765625,0.0521697998046875,0.057861328125
1710531843589400600,7.524400634765625,-0.996856689453125,0.0558929443359375,0.060516357421875
1710531843599474400,7.534474365234375,-0.996795654296875,0.0592803955078125,0.0594482421875
1710531843609548500,7.544548583984375,-0.9961700439453125,0.059906005859375,0.0603485107421875
1710531843619622400,7.554622314453125,-0.9936981201171875,0.0601348876953125,0.059234619140625
1710531843629696500,7.564696533203125,-0.9913482666015625,0.0594329833984375,0.0575714111328125
1710531843639770600,7.5747705078125,-0.9938507080078125,0.0589447021484375,0.05755615234375
1710531843649844500,7.584844482421875,-0.992919921875,0.058746337890625,0.0559234619140625
1710531843659918600,7.594918701171875,-0.9917755126953125,0.0570831298828125,0.0563507080078125
1710531843669992400,7.604992431640625,-0.9931182861328125,0.0582733154296875,0.0555267333984375
1710531843680066600,7.615066650390625,-0.9930572509765625,0.05853271484375,0.0558929443359375
1710531843690139600,7.6251396484375,-0.992095947265625,0.0580902099609375,0.0559539794921875
1710531843700214300,7.63521435546875,-0.99249267578125,0.0594482421875,0.058441162109375
1710531843710287600,7.64528759765625,-0.99444580078125,0.0600738525390625,0.05963134765625
1710531843720361500,7.655361572265625,-0.9964599609375,0.0613555908203125,0.06170654296875
1710531843730435600,7.665435546875,-0.9953460693359375,0.0604095458984375,0.060150146484375
1710531843740509400,7.675509521484375,-0.9949798583984375,0.0615386962890625,0.0582275390625
1710531843750583300,7.685583251953125,-0.9938507080078125,0.05889892578125,0.0592803955078125
1710531843760657700,7.69565771484375,-0.996185302734375,0.0559844970703125,0.0600738525390625
1710531843770731500,7.7057314453125,-0.9953155517578125,0.054107666015625,0.060394287109375
1710531843780805600,7.7158056640625,-0.9933624267578125,0.0495758056640625,0.0596923828125
1710531843790879500,7.72587939453125,-0.9946746826171875,0.0470428466796875,0.05999755859375
1710531843800953300,7.735953369140625,-0.996002197265625,0.046234130859375,0.0601348876953125
1710531843811027500,7.74602734375,-1.00726318359375,0.047637939453125,0.05975341796875
1710531843821101300,7.756101318359375,-0.989990234375,0.0536041259765625,0.0593109130859375
1710531843831175700,7.76617578125,-0.9979095458984375,0.056915283203125,0.058380126953125
1710531843841249500,7.77624951171875,-0.997955322265625,0.0590667724609375,0.0577545166015625
1710531843851323600,7.78632373046875,-0.9909820556640625,0.061737060546875,0.056610107421875
1710531843861397500,7.7963974609375,-0.9959259033203125,0.0627593994140625,0.056732177734375
1710531843871471400,7.806471435546875,-0.991912841796875,0.06329345703125,0.05560302734375
1710531843881545500,7.81654541015625,-0.9947967529296875,0.0626678466796875,0.05621337890625
1710531843891619300,7.826619384765625,-0.993927001953125,0.06134033203125,0.0592498779296875
1710531843901693700,7.836693603515625,-0.992095947265625,0.0591583251953125,0.0590362548828125
1710531843911767600,7.846767578125,-0.99609375,0.054931640625,0.059906005859375
1710531843921841400,7.85684130859375,-0.997955322265625,0.0513916015625,0.060791015625
1710531843931915500,7.86691552734375,-0.9971771240234375,0.0482330322265625,0.0606842041015625
1710531843941989400,7.8769892578125,-0.9967803955078125,0.0484466552734375,0.057159423828125
1710531843952063500,7.8870634765625,-0.9959259033203125,0.049072265625,0.0566864013671875
1710531843962137300,7.897137451171875,-0.995391845703125,0.0496826171875,0.05535888671875
1710531843972211700,7.907211669921875,-0.9963836669921875,0.052581787109375,0.0550384521484375
1710531843982285600,7.91728564453125,-0.997589111328125,0.0590057373046875,0.05865478515625
1710531843992359400,7.927359375,-0.9932098388671875,0.06182861328125,0.0598602294921875
1710531844002433500,7.93743359375,-0.9944915771484375,0.064178466796875,0.0619659423828125
1710531844012507400,7.94750732421875,-0.9955291748046875,0.064483642578125,0.063201904296875
1710531844022581500,7.95758154296875,-0.9925994873046875,0.0625,0.063140869140625
1710531844032655400,7.9676552734375,-0.992431640625,0.060760498046875,0.0578155517578125
1710531844042729500,7.9777294921875,-0.9932708740234375,0.0573577880859375,0.0570831298828125
1710531844052803600,7.987803466796875,-0.99468994140625,0.0557098388671875,0.0567169189453125
1710531844062877400,7.99787744140625,-0.9930267333984375,0.0534515380859375,0.05682373046875
1710531844072951600,8.00795166015625,-0.9918212890625,0.05145263671875,0.056121826171875
1710531844083025400,8.018025390625,-0.9958343505859375,0.052947998046875,0.0583648681640625
1710531844093099500,8.028099609375,-0.994873046875,0.05426025390625,0.0583953857421875
1710531844103173400,8.03817333984375,-0.996337890625,0.0566253662109375,0.058990478515625
1710531844113247500,8.04824755859375,-0.994171142578125,0.0586090087890625,0.0595550537109375
1710531844123321600,8.058321533203125,-0.996551513671875,0.0608673095703125,0.057891845703125
1710531844133395500,8.0683955078125,-0.9977569580078125,0.0590972900390625,0.0576934814453125
1710531844143469600,8.078469482421875,-0.9949951171875,0.0594024658203125,0.0579376220703125
1710531844153543400,8.08854345703125,-0.995391845703125,0.058258056640625,0.0593414306640625
1710531844163617500,8.098617431640625,-0.995361328125,0.057586669921875,0.0593719482421875
1710531844173691400,8.10869140625,-0.996124267578125,0.055938720703125,0.0585174560546875
1710531844183765500,8.118765625,-0.9979095458984375,0.055419921875,0.0574798583984375
1710531844193835800,8.128835693359376,-0.995849609375,0.0556640625,0.0582427978515625
1710531844203909600,8.13890966796875,-0.996429443359375,0.057525634765625,0.0581207275390625
1710531844213983700,8.148983642578125,-0.9958953857421875,0.0578155517578125,0.057769775390625
1710531844224057600,8.1590576171875,-0.995330810546875,0.0586395263671875,0.0569000244140625
1710531844234131700,8.169131591796875,-0.995208740234375,0.0568695068359375,0.057830810546875
1710531844244205800,8.179205810546875,-0.9936370849609375,0.0576171875,0.0583953857421875
1710531844254278700,8.189278564453126,-0.9948577880859375,0.0556793212890625,0.0594482421875
1710531844264352800,8.199352783203125,-0.9940948486328125,0.0566558837890625,0.0595703125
1710531844274426600,8.209426513671875,-0.9942169189453125,0.054473876953125,0.0596466064453125
1710531844284500700,8.219500732421874,-0.9954833984375,0.053985595703125,0.0604705810546875
1710531844294574800,8.229574951171875,-0.9953155517578125,0.0529327392578125,0.0600433349609375
1710531844304648700,8.239648681640626,-0.995574951171875,0.0517425537109375,0.06060791015625
1710531844314722800,8.249722900390625,-0.9947967529296875,0.0515289306640625,0.059539794921875
1710531844324796700,8.259796630859375,-0.9955902099609375,0.0520477294921875,0.0615234375
1710531844334870800,8.269870849609376,-0.9950408935546875,0.0536956787109375,0.0577392578125
1710531844344944600,8.279944580078125,-0.9975128173828125,0.0552978515625,0.05718994140625
1710531844355018800,8.290018798828125,-0.996337890625,0.0563812255859375,0.0591583251953125
1710531844365092900,8.3000927734375,-0.996063232421875,0.0567626953125,0.0587310791015625
1710531844375166700,8.310166748046875,-0.994384765625,0.0580902099609375,0.061309814453125
1710531844385240800,8.32024072265625,-0.995391845703125,0.0561676025390625,0.0608978271484375
1710531844395314700,8.330314697265624,-0.994537353515625,0.0565338134765625,0.0618896484375
1710531844405388800,8.340388916015625,-0.995574951171875,0.055084228515625,0.059814453125
1710531844415462700,8.350462646484376,-0.9964752197265625,0.0555877685546875,0.056488037109375
1710531844425536500,8.36053662109375,-0.9943084716796875,0.0527496337890625,0.0555267333984375
1710531844435611000,8.37061083984375,-0.9952239990234375,0.05230712890625,0.0569915771484375
1710531844445684700,8.380684814453126,-0.99530029296875,0.0528564453125,0.057281494140625
1710531844455758800,8.3907587890625,-0.9973602294921875,0.0527191162109375,0.0597076416015625
1710531844465832700,8.400832763671875,-0.9978790283203125,0.052215576171875,0.059356689453125
1710531844475906800,8.41090673828125,-0.994537353515625,0.052276611328125,0.0616607666015625
1710531844485980700,8.420980712890625,-0.9941558837890625,0.05206298828125,0.0626678466796875
1710531844496054500,8.431054443359375,-0.9942779541015625,0.0542144775390625,0.0611572265625
1710531844506129000,8.44112890625,-0.9962158203125,0.0550537109375,0.06170654296875
1710531844516202800,8.45120263671875,-0.9947662353515625,0.0573883056640625,0.0594635009765625
1710531844526276900,8.46127685546875,-0.9921417236328125,0.0572052001953125,0.0589599609375
1710531844536350700,8.471350830078125,-0.99267578125,0.0588531494140625,0.060943603515625
1710531844546424600,8.481424560546875,-0.994476318359375,0.0580902099609375,0.0594329833984375
1710531844556498700,8.491498779296874,-0.99462890625,0.0570068359375,0.0605621337890625
1710531844566572500,8.501572509765625,-0.994873046875,0.0529632568359375,0.0594635009765625
1710531844576647000,8.51164697265625,-0.99420166015625,0.0538787841796875,0.0587615966796875
1710531844586720800,8.521720703125,-0.9951934814453125,0.0534515380859375,0.0613250732421875
1710531844596795000,8.531794921875,-0.99737548828125,0.05322265625,0.0599517822265625
1710531844606868700,8.54186865234375,-1.0035858154296875,0.052093505859375,0.0607757568359375
1710531844616942600,8.551942626953124,-0.990478515625,0.0520782470703125,0.0592498779296875
1710531844627016700,8.5620166015625,-0.985595703125,0.0525665283203125,0.057281494140625
1710531844637090600,8.572090576171876,-0.9973907470703125,0.0533599853515625,0.058563232421875
1710531844647165000,8.5821650390625,-0.9918212890625,0.0557403564453125,0.0605926513671875
1710531844657238800,8.59223876953125,-0.998260498046875,0.0557098388671875,0.0599517822265625
1710531844667313000,8.60231298828125,-0.9987640380859375,0.056427001953125,0.0606689453125
1710531844677386800,8.61238671875,-0.9946136474609375,0.0561370849609375,0.06097412109375
1710531844687460600,8.622460693359375,-0.995513916015625,0.0546417236328125,0.0603179931640625
1710531844697534700,8.63253466796875,-0.9970855712890625,0.052093505859375,0.059661865234375
1710531844707608600,8.642608642578125,-0.9932403564453125,0.050567626953125,0.0610809326171875
1710531844717683000,8.652682861328126,-0.9931488037109375,0.0461578369140625,0.06134033203125
1710531844727756800,8.6627568359375,-0.9967041015625,0.0460205078125,0.0628509521484375
1710531844737830700,8.67283056640625,-0.997589111328125,0.0482025146484375,0.0623931884765625
1710531844747904800,8.68290478515625,-0.99627685546875,0.0505218505859375,0.0648345947265625
1710531844757978600,8.692978515625,-0.9976654052734375,0.0519866943359375,0.06549072265625
1710531844768052700,8.703052734375,-0.997711181640625,0.05316162109375,0.065216064453125
1710531844778126600,8.713126708984374,-0.9971466064453125,0.0545654296875,0.064208984375
1710531844788201000,8.723200927734375,-0.9940643310546875,0.0543975830078125,0.060760498046875
1710531844798274800,8.73327490234375,-0.99176025390625,0.0553131103515625,0.0573883056640625
1710531844808348700,8.7433486328125,-0.9921875,0.0545501708984375,0.058563232421875
1710531844818422800,8.7534228515625,-0.9954376220703125,0.0543365478515625,0.056671142578125
1710531844828496600,8.76349658203125,-0.99273681640625,0.052764892578125,0.05670166015625
1710531844838569700,8.77356982421875,-0.9906158447265625,0.051666259765625,0.0596923828125
1710531844848644600,8.78364453125,-0.993743896484375,0.0539703369140625,0.0608062744140625
1710531844858717700,8.7937177734375,-0.9949951171875,0.0521392822265625,0.06329345703125
1710531844868791800,8.803791748046875,-0.99578857421875,0.0529022216796875,0.06439208984375
1710531844878865700,8.81386572265625,-0.997955322265625,0.0536651611328125,0.066375732421875
1710531844888939800,8.823939697265626,-0.9960174560546875,0.056182861328125,0.0619659423828125
1710531844899013600,8.834013671875,-0.9963226318359375,0.0551605224609375,0.0636749267578125
1710531844909087700,8.844087646484375,-0.99713134765625,0.0524749755859375,0.0632781982421875
1710531844919161900,8.854161865234374,-0.995269775390625,0.0522918701171875,0.0625
1710531844929235700,8.864235595703125,-0.9943084716796875,0.052978515625,0.0633392333984375
1710531844939309800,8.874309814453126,-0.9936981201171875,0.0516204833984375,0.061492919921875
1710531844949383700,8.8843837890625,-0.992156982421875,0.05133056640625,0.06231689453125
1710531844959457500,8.89445751953125,-0.9940032958984375,0.0520782470703125,0.062744140625
1710531844969531600,8.90453173828125,-0.9915771484375,0.0516357421875,0.0622406005859375
1710531844979605800,8.914605712890625,-1.0070037841796875,0.051849365234375,0.0632171630859375
1710531844989679900,8.924679931640625,-0.99053955078125,0.0521087646484375,0.062042236328125
1710531844999753700,8.934753662109374,-0.996063232421875,0.05279541015625,0.0610504150390625
1710531845009827800,8.944827880859375,-0.997528076171875,0.05206298828125,0.0596771240234375
1710531845019901700,8.954901611328125,-0.9923095703125,0.052978515625,0.0596160888671875
1710531845029975600,8.9649755859375,-0.9941558837890625,0.05267333984375,0.0566864013671875
1710531845040049700,8.975049560546875,-0.9917144775390625,0.0540008544921875,0.0574798583984375
1710531845050123800,8.985123779296876,-0.9946746826171875,0.056549072265625,0.0584869384765625
1710531845060198000,8.995197998046875,-0.9950408935546875,0.0570526123046875,0.06231689453125
1710531845070271700,9.005271728515625,-0.994476318359375,0.0554962158203125,0.0655975341796875
1710531845080345600,9.015345703125,-0.99761962890625,0.053619384765625,0.0671844482421875
1710531845090419700,9.025419677734375,-0.997467041015625,0.0507354736328125,0.06597900390625
1710531845100493600,9.03549365234375,-0.9969635009765625,0.04925537109375,0.0661163330078125
1710531845110568000,9.04556787109375,-0.9974365234375,0.04779052734375,0.063140869140625
1710531845120641800,9.055641845703125,-0.99664306640625,0.04620361328125,0.0606536865234375
1710531845130716000,9.0657158203125,-0.9938812255859375,0.0470733642578125,0.0576934814453125
1710531845140789800,9.075789794921874,-0.99267578125,0.0504913330078125,0.055816650390625
1710531845150863600,9.085863525390625,-0.995452880859375,0.053314208984375,0.0563812255859375
1710531845160937700,9.095937744140626,-0.99755859375,0.05572509765625,0.059783935546875
1710531845171011600,9.106011474609375,-0.99627685546875,0.0575408935546875,0.063507080078125
1710531845181086000,9.1160859375,-0.9958038330078125,0.0586090087890625,0.063323974609375
1710531845191160300,9.126160400390624,-0.99456787109375,0.0578155517578125,0.0656890869140625
1710531845201234400,9.136234375,-0.9931488037109375,0.0581512451171875,0.06494140625
1710531845211308300,9.146308349609376,-0.9942779541015625,0.0543212890625,0.06182861328125
1710531845221382400,9.15638232421875,-0.9939422607421875,0.05230712890625,0.0628662109375
1710531845231456300,9.166456298828125,-0.994720458984375,0.0524139404296875,0.0600128173828125
1710531845241530400,9.1765302734375,-0.994384765625,0.0523223876953125,0.0600128173828125
1710531845251604200,9.186604248046875,-0.9930877685546875,0.051971435546875,0.0599212646484375
1710531845261678300,9.19667822265625,-0.9945068359375,0.05218505859375,0.059814453125
1710531845271752400,9.20675244140625,-0.995513916015625,0.0532684326171875,0.0578765869140625
1710531845281826300,9.216826416015625,-0.9960174560546875,0.054901123046875,0.0595550537109375
1710531845291900400,9.226900390625,-0.994781494140625,0.05352783203125,0.059906005859375
1710531845301974300,9.236974365234374,-0.9946441650390625,0.0538330078125,0.0602569580078125
1710531845312048400,9.24704833984375,-0.9965667724609375,0.0535125732421875,0.0609893798828125
1710531845322122200,9.257122314453126,-0.995574951171875,0.053375244140625,0.0615386962890625
1710531845332196400,9.2671962890625,-0.9967498779296875,0.0518951416015625,0.0614471435546875
1710531845342270500,9.2772705078125,-0.994873046875,0.0532379150390625,0.0626068115234375
1710531845352344300,9.28734423828125,-0.9957427978515625,0.0523834228515625,0.06365966796875
1710531845362418400,9.29741845703125,-0.996063232421875,0.050750732421875,0.06243896484375
1710531845372492300,9.3074921875,-0.99609375,0.050628662109375,0.058868408203125
1710531845382566100,9.317566162109374,-0.997589111328125,0.0518798828125,0.06005859375
1710531845392640300,9.32764013671875,-0.99615478515625,0.0510406494140625,0.061187744140625
1710531845402714400,9.33771435546875,-0.9952545166015625,0.051055908203125,0.0623626708984375
1710531845412788500,9.34778857421875,-0.9947967529296875,0.05438232421875,0.06201171875
1710531845422862300,9.3578623046875,-0.9935760498046875,0.0546417236328125,0.061798095703125
1710531845432936400,9.3679365234375,-0.9937896728515625,0.0545501708984375,0.062164306640625
1710531845443010300,9.37801025390625,-0.9968719482421875,0.054840087890625,0.061737060546875
1710531845453084200,9.388084228515625,-0.994842529296875,0.05511474609375,0.0603179931640625
1710531845463158300,9.398158203125,-0.9943084716796875,0.0546722412109375,0.0619964599609375
1710531845473232400,9.408232421875,-0.9951019287109375,0.05352783203125,0.06048583984375
1710531845483306500,9.418306396484375,-0.995086669921875,0.0515594482421875,0.0612030029296875
1710531845493380400,9.42838037109375,-0.996856689453125,0.0502471923828125,0.0599822998046875
1710531845503453200,9.438453125,-0.99481201171875,0.04937744140625,0.0604248046875
1710531845513527300,9.44852734375,-0.9954986572265625,0.0512847900390625,0.0612335205078125
1710531845523601400,9.458601318359374,-0.995147705078125,0.0513153076171875,0.0577850341796875
1710531845533675500,9.468675537109375,-0.9933929443359375,0.05108642578125,0.0618133544921875
1710531845543749400,9.478749267578126,-0.99365234375,0.05316162109375,0.0610809326171875
1710531845553823200,9.4888232421875,-0.996063232421875,0.0533294677734375,0.061614990234375
1710531845563897300,9.4988974609375,-0.9945831298828125,0.0526275634765625,0.0597381591796875
1710531845573971200,9.50897119140625,-0.9957275390625,0.05255126953125,0.06365966796875
1710531845584045300,9.51904541015625,-0.9957733154296875,0.0512237548828125,0.0608367919921875
1710531845594119400,9.529119384765625,-0.9950103759765625,0.0509185791015625,0.0612640380859375
1710531845604193300,9.539193359375,-0.99530029296875,0.050994873046875,0.060760498046875
1710531845614267400,9.549267333984375,-0.99609375,0.05072021484375,0.0597381591796875
1710531845624341200,9.55934130859375,-0.9953765869140625,0.0510711669921875,0.060699462890625
1710531845634415400,9.569415283203124,-0.9937591552734375,0.0508575439453125,0.059844970703125
1710531845644489200,9.5794892578125,-0.993621826171875,0.051055908203125,0.061981201171875
1710531845654563300,9.589563232421876,-0.9931182861328125,0.05108642578125,0.062255859375
1710531845664637400,9.599637451171875,-0.9962158203125,0.051788330078125,0.0614013671875
1710531845674711300,9.609711181640625,-0.995452880859375,0.0519866943359375,0.0612945556640625
1710531845684785400,9.619785400390626,-0.9948883056640625,0.051788330078125,0.0617828369140625
1710531845694859300,9.629859375,-0.994049072265625,0.0521240234375,0.0616607666015625
1710531845704933400,9.639933349609375,-0.992889404296875,0.052337646484375,0.06201171875
1710531845715007200,9.65000732421875,-0.993316650390625,0.0525360107421875,0.0622711181640625
1710531845725081300,9.660081298828125,-0.9951171875,0.052886962890625,0.0619049072265625
1710531845735155500,9.670155517578126,-0.9933929443359375,0.05230712890625,0.0610809326171875
1710531845745229300,9.680229248046874,-0.9988861083984375,0.0527496337890625,0.0606536865234375
1710531845755303400,9.690303466796875,-1.0032196044921875,0.0539398193359375,0.061981201171875
1710531845765377300,9.700377197265626,-1.0034942626953125,0.0532379150390625,0.063751220703125
1710531845775451400,9.710451416015625,-0.9857635498046875,0.052001953125,0.06365966796875
1710531845785525200,9.720525146484375,-0.989959716796875,0.0517578125,0.0606231689453125
1710531845795599000,9.73059912109375,-1.0002899169921875,0.0503387451171875,0.0597686767578125
1710531845805673500,9.740673583984375,-0.9897613525390625,0.05035400390625,0.06298828125
1710531845815747300,9.750747314453125,-1.00152587890625,0.051483154296875,0.06427001953125
1710531845825821400,9.760821533203124,-1.0006561279296875,0.0516815185546875,0.0608062744140625
1710531845835895300,9.770895263671875,-0.9918365478515625,0.052490234375,0.0607757568359375
1710531845845969400,9.780969482421876,-0.991607666015625,0.05157470703125,0.061492919921875
1710531845856043300,9.791043212890624,-0.9947509765625,0.04888916015625,0.062042236328125
1710531845866117000,9.8011171875,-0.994720458984375,0.0466461181640625,0.0613861083984375
1710531845876191500,9.81119140625,-0.9923858642578125,0.046417236328125,0.060699462890625
1710531845886265300,9.821265380859375,-0.9969024658203125,0.04730224609375,0.0614471435546875
1710531845896339500,9.83133935546875,-0.9964141845703125,0.04974365234375,0.062347412109375
1710531845906413300,9.841413330078124,-0.996917724609375,0.051666259765625,0.06439208984375
1710531845916487200,9.851487060546875,-0.998138427734375,0.05169677734375,0.06756591796875
1710531845926561300,9.861561279296875,-0.997100830078125,0.0528106689453125,0.0675201416015625
1710531845936635100,9.87163525390625,-0.9956512451171875,0.0522308349609375,0.0667877197265625
1710531845946709500,9.88170947265625,-0.993865966796875,0.0531005859375,0.0640411376953125
1710531845956783400,9.891783447265626,-0.9929962158203125,0.0512542724609375,0.061248779296875
1710531845966857500,9.901857421875,-0.9937744140625,0.050628662109375,0.0604095458984375
1710531845976931300,9.911931396484375,-0.9947662353515625,0.050140380859375,0.0590362548828125
1710531845987005200,9.922005126953126,-0.99273681640625,0.0511474609375,0.0576629638671875
1710531845997079300,9.932079345703125,-0.9926300048828125,0.05224609375,0.05865478515625
1710531846007153200,9.942153076171875,-0.9936981201171875,0.053558349609375,0.059906005859375
1710531846017227500,9.9522275390625,-0.9938812255859375,0.0548553466796875,0.063323974609375
1710531846027301400,9.96230126953125,-0.9941558837890625,0.0576171875,0.0653076171875
1710531846037375200,9.972375244140625,-0.9975128173828125,0.057373046875,0.065032958984375
1710531846047449300,9.982449462890624,-0.9981231689453125,0.05804443359375,0.0652923583984375
1710531846057523200,9.992523193359375,-0.99627685546875,0.0561981201171875,0.062896728515625
1710531846067597300,10.002597412109376,-0.9951934814453125,0.0540771484375,0.0653533935546875
1710531846077671200,10.012671142578125,-0.994720458984375,0.0518035888671875,0.0619659423828125
1710531846087745500,10.02274560546875,-0.9942626953125,0.05035400390625,0.0631866455078125
1710531846097819400,10.0328193359375,-0.99554443359375,0.0496978759765625,0.0627593994140625
1710531846107893200,10.042893310546875,-0.99053955078125,0.048980712890625,0.061004638671875
1710531846117967400,10.05296728515625,-0.994354248046875,0.0494384765625,0.0582122802734375
1710531846128041200,10.063041259765624,-0.9907379150390625,0.0511932373046875,0.0609893798828125
1710531846138115300,10.073115234375,-1.003143310546875,0.0546875,0.0625457763671875
1710531846148189200,10.083189208984376,-0.9906463623046875,0.056060791015625,0.0641326904296875
1710531846158263600,10.093263671875,-0.99365234375,0.0546417236328125,0.0632781982421875
1710531846168337400,10.10333740234375,-0.9984283447265625,0.0560455322265625,0.061767578125
1710531846178411300,10.113411376953126,-0.9939422607421875,0.0556488037109375,0.062286376953125
1710531846188484600,10.123484619140624,-0.99566650390625,0.0537109375,0.0604705810546875
1710531846198558700,10.133558837890625,-0.9946441650390625,0.0553741455078125,0.057373046875
1710531846208631800,10.1436318359375,-0.9966278076171875,0.05535888671875,0.0595703125
1710531846218705700,10.15370556640625,-0.9933929443359375,0.053314208984375,0.0594024658203125
1710531846228779800,10.16377978515625,-0.9886627197265625,0.052825927734375,0.0621337890625
1710531846238853600,10.173853515625,-0.992279052734375,0.0523223876953125,0.061737060546875
1710531846248927500,10.183927490234375,-0.9955596923828125,0.0529632568359375,0.064666748046875
1710531846259001900,10.194001953125,-0.9980621337890625,0.0513763427734375,0.0637664794921875
1710531846269075700,10.20407568359375,-1.0007476806640625,0.05218505859375,0.0611419677734375
1710531846279149800,10.21414990234375,-1.0003509521484375,0.051239013671875,0.060394287109375
1710531846289223700,10.2242236328125,-0.99517822265625,0.051788330078125,0.0586090087890625
1710531846299297800,10.2342978515625,-0.9947357177734375,0.0543060302734375,0.05792236328125
1710531846309371600,10.24437158203125,-0.99609375,0.05438232421875,0.05694580078125
1710531846319445500,10.254445556640626,-0.996124267578125,0.0554962158203125,0.0561981201171875
1710531846329519900,10.264519775390625,-0.9939727783203125,0.055877685546875,0.0575103759765625
1710531846339593700,10.27459375,-0.9951171875,0.0559234619140625,0.0567474365234375
1710531846349667800,10.284667724609376,-0.994964599609375,0.0577850341796875,0.0554962158203125
1710531846359741700,10.29474169921875,-0.9931793212890625,0.0576019287109375,0.056732177734375
1710531846369815600,10.304815673828125,-0.9916839599609375,0.0565032958984375,0.059234619140625
1710531846379889700,10.3148896484375,-0.9938507080078125,0.0578765869140625,0.0585784912109375
1710531846389963500,10.324963623046875,-0.9937896728515625,0.0579681396484375,0.0564422607421875
1710531846400038000,10.335037841796876,-0.9949493408203125,0.0591583251953125,0.0581817626953125
1710531846410111700,10.34511181640625,-0.993743896484375,0.05694580078125,0.05804443359375
1710531846420185900,10.355185791015625,-0.9956207275390625,0.05706787109375,0.057098388671875
1710531846430259700,10.365259765625,-0.9981689453125,0.0594024658203125,0.055816650390625
1710531846440333600,10.37533349609375,-0.99700927734375,0.05718994140625,0.05841064453125
1710531846450407700,10.38540771484375,-0.9951019287109375,0.057037353515625,0.05865478515625
1710531846460481500,10.3954814453125,-0.9979400634765625,0.056610107421875,0.0575714111328125
1710531846470556000,10.405555908203125,-0.996612548828125,0.055267333984375,0.0565338134765625
1710531846480629800,10.415629638671875,-0.994476318359375,0.0548248291015625,0.0585784912109375
1710531846490704000,10.425703857421874,-0.994171142578125,0.0554046630859375,0.05584716796875
1710531846500777700,10.43577783203125,-0.9950408935546875,0.054656982421875,0.05438232421875
1710531846510851600,10.4458515625,-0.9949493408203125,0.053436279296875,0.054779052734375
1710531846520925700,10.45592578125,-0.995330810546875,0.05322265625,0.0545196533203125
1710531846530999600,10.46599951171875,-0.996551513671875,0.0556182861328125,0.053985595703125
1710531846541074000,10.476073974609376,-0.9935455322265625,0.0582275390625,0.0548858642578125
1710531846551147800,10.486147705078125,-0.9952850341796875,0.0602569580078125,0.05645751953125
1710531846561221600,10.4962216796875,-0.9925537109375,0.061126708984375,0.0568084716796875
1710531846571295700,10.506295654296874,-0.993011474609375,0.0598602294921875,0.053619384765625
1710531846581369600,10.51636962890625,-0.9937286376953125,0.0591888427734375,0.05633544921875
1710531846591443700,10.526443603515625,-0.993927001953125,0.0595703125,0.056243896484375
1710531846601517600,10.536517578125,-0.9939422607421875,0.05859375,0.0583343505859375
1710531846611592000,10.546592041015625,-0.995880126953125,0.0582427978515625,0.057098388671875
1710531846621665800,10.556665771484376,-0.9966583251953125,0.057830810546875,0.05657958984375
1710531846631739600,10.56673974609375,-0.9968109130859375,0.0591278076171875,0.056793212890625
1710531846641813800,10.576813720703125,-0.99530029296875,0.058685302734375,0.056121826171875
1710531846651887600,10.5868876953125,-0.994964599609375,0.0594482421875,0.05511474609375
1710531846661961700,10.596961669921875,-0.9941864013671875,0.0585784912109375,0.05523681640625
1710531846672035600,10.60703564453125,-0.9954376220703125,0.0575103759765625,0.05487060546875
1710531846682109700,10.617109619140624,-0.995025634765625,0.0560150146484375,0.05572509765625
1710531846692183800,10.627183837890625,-0.994110107421875,0.05572509765625,0.0561065673828125
1710531846702257700,10.637257568359376,-0.998504638671875,0.0568695068359375,0.0547027587890625
1710531846712331800,10.647331787109374,-0.9959716796875,0.0565032958984375,0.0544586181640625
1710531846722405600,10.657405517578125,-0.9960174560546875,0.0568084716796875,0.05352783203125
1710531846732479700,10.667479736328126,-0.9959716796875,0.0581817626953125,0.05181884765625
1710531846742553600,10.6775537109375,-0.995758056640625,0.060302734375,0.0528411865234375
1710531846752627700,10.687627685546875,-0.99371337890625,0.0614471435546875,0.053466796875
1710531846762701800,10.697701904296874,-0.991058349609375,0.06280517578125,0.0546875
1710531846772775700,10.707775634765625,-0.9937896728515625,0.0615386962890625,0.056243896484375
1710531846782849800,10.717849853515625,-0.99432373046875,0.0592193603515625,0.0567169189453125
1710531846792923600,10.727923583984374,-0.9926300048828125,0.059356689453125,0.058258056640625
1710531846802997500,10.73799755859375,-0.995269775390625,0.0604705810546875,0.0574951171875
1710531846813071600,10.748071533203126,-0.994232177734375,0.059051513671875,0.056976318359375
1710531846823145700,10.758145751953125,-0.9980316162109375,0.05908203125,0.054473876953125
1710531846833219800,10.7682197265625,-1.0009918212890625,0.0588836669921875,0.0542449951171875
1710531846843293700,10.778293701171876,-0.998016357421875,0.0599517822265625,0.052642822265625
1710531846853367800,10.788367919921875,-0.9871368408203125,0.0590362548828125,0.051116943359375
1710531846863441700,10.798441650390625,-0.9925689697265625,0.05841064453125,0.05078125
1710531846873515500,10.808515625,-0.99981689453125,0.060089111328125,0.0545654296875
1710531846883589600,10.818589599609375,-0.9988555908203125,0.062164306640625,0.0557708740234375
1710531846893663700,10.828663818359376,-0.99615478515625,0.0634002685546875,0.055023193359375
1710531846903737900,10.83873779296875,-0.9954071044921875,0.065032958984375,0.0551605224609375
1710531846913811700,10.848811767578125,-0.9923553466796875,0.0635528564453125,0.0536346435546875
1710531846923885800,10.8588857421875,-0.997711181640625,0.0619049072265625,0.05364990234375
1710531846933959700,10.868959716796875,-0.9947967529296875,0.0580596923828125,0.055419921875
1710531846944033500,10.879033447265625,-0.9874420166015625,0.0544891357421875,0.0543670654296875
1710531846954107600,10.889107666015626,-0.993072509765625,0.0506591796875,0.054412841796875
1710531846964181800,10.899181640625,-1.00042724609375,0.0516357421875,0.0547027587890625
1710531846974255900,10.909255859375,-1.002197265625,0.0528106689453125,0.0540008544921875
1710531846984329700,10.919329833984374,-0.996490478515625,0.0560760498046875,0.056396484375
1710531846994403600,10.929403564453125,-0.9934844970703125,0.058197021484375,0.0574798583984375
1710531847004477700,10.939477783203126,-0.99432373046875,0.0600128173828125,0.0573272705078125
1710531847014551600,10.949551513671874,-0.995086669921875,0.061431884765625,0.0551605224609375
1710531847024625700,10.959625732421875,-0.99285888671875,0.063934326171875,0.0544281005859375
1710531847034699800,10.96969970703125,-0.990966796875,0.06268310546875,0.051971435546875
1710531847044772600,10.979772705078124,-0.992340087890625,0.062469482421875,0.0509033203125
1710531847054846700,10.9898466796875,-0.9951019287109375,0.0605621337890625,0.050506591796875
1710531847064920600,10.999920654296876,-0.993621826171875,0.059539794921875,0.0506439208984375
1710531847074994700,11.00999462890625,-0.99261474609375,0.0600433349609375,0.0525360107421875
1710531847085068800,11.02006884765625,-0.9927520751953125,0.0599517822265625,0.0547332763671875
1710531847095142700,11.030142578125,-0.9942169189453125,0.060821533203125,0.05548095703125
1710531847105216800,11.040216796875,-0.994720458984375,0.061370849609375,0.0551910400390625
1710531847115290600,11.05029052734375,-0.9946441650390625,0.061767578125,0.057037353515625
1710531847125364700,11.06036474609375,-0.9954986572265625,0.063232421875,0.0567626953125
1710531847135438600,11.0704384765625,-0.995758056640625,0.06317138671875,0.0595703125
1710531847145512700,11.0805126953125,-0.9945831298828125,0.0610198974609375,0.0577392578125
1710531847155586800,11.0905869140625,-0.995880126953125,0.0597686767578125,0.0585784912109375
1710531847165660700,11.10066064453125,-0.9994659423828125,0.0579986572265625,0.055755615234375
1710531847175734800,11.11073486328125,-0.9977264404296875,0.058074951171875,0.05206298828125
1710531847185808600,11.12080859375,-0.998016357421875,0.056732177734375,0.0528564453125
1710531847195883800,11.1308837890625,-0.9925689697265625,0.0585784912109375,0.05596923828125
1710531847205958000,11.1409580078125,-1.006134033203125,0.0602264404296875,0.056549072265625
1710531847216031700,11.15103173828125,-0.987579345703125,0.0630950927734375,0.057342529296875
1710531847226105900,11.16110595703125,-0.99542236328125,0.0610198974609375,0.05718994140625
1710531847236179700,11.1711796875,-0.9990386962890625,0.06060791015625,0.055755615234375
1710531847246253800,11.18125390625,-0.9928436279296875,0.06024169921875,0.05487060546875
1710531847256328000,11.191327880859374,-0.9950714111328125,0.0607452392578125,0.053924560546875
1710531847266401800,11.20140185546875,-0.99127197265625,0.0597076416015625,0.0526580810546875
1710531847276476000,11.211475830078125,-0.9928436279296875,0.0603485107421875,0.0516510009765625
1710531847286549800,11.2215498046875,-0.9937591552734375,0.0609283447265625,0.0541534423828125
1710531847296623900,11.231623779296875,-0.99053955078125,0.059326171875,0.0547332763671875
1710531847306697700,11.24169775390625,-0.9957427978515625,0.0575103759765625,0.0569915771484375
1710531847316771800,11.251771728515624,-0.99627685546875,0.055816650390625,0.056396484375
1710531847326846000,11.261845947265625,-0.9976959228515625,0.055511474609375,0.0567474365234375
1710531847336919800,11.271919921875,-0.9979248046875,0.055755615234375,0.055877685546875
1710531847346994000,11.281993896484375,-0.9961395263671875,0.05487060546875,0.0552825927734375
1710531847357067800,11.29206787109375,-0.9960174560546875,0.05633544921875,0.054473876953125
1710531847367141600,11.3021416015625,-0.99664306640625,0.0589447021484375,0.05401611328125
1710531847377215700,11.3122158203125,-0.9955596923828125,0.0607757568359375,0.0533905029296875
1710531847387289900,11.322289794921875,-0.9962615966796875,0.06396484375,0.0539093017578125
1710531847397364000,11.332364013671874,-0.9944610595703125,0.06396484375,0.0557861328125
1710531847407437800,11.342437744140625,-0.992218017578125,0.0639801025390625,0.0564117431640625
1710531847417512000,11.352511962890626,-0.9925079345703125,0.0622711181640625,0.0560455322265625
1710531847427585800,11.362585693359375,-0.99365234375,0.0611419677734375,0.0571136474609375
1710531847437659600,11.37265966796875,-0.99456787109375,0.060516357421875,0.0579833984375
1710531847447733800,11.382733642578126,-0.993194580078125,0.0600738525390625,0.058624267578125
1710531847457808000,11.392807861328125,-0.98956298828125,0.0594482421875,0.05816650390625
1710531847467882000,11.402882080078125,-0.994140625,0.0576324462890625,0.05548095703125
1710531847477955800,11.412955810546874,-0.994049072265625,0.0574188232421875,0.052947998046875
1710531847488029700,11.42302978515625,-0.9966888427734375,0.05889892578125,0.052947998046875
1710531847498103800,11.433103759765626,-0.9968109130859375,0.060638427734375,0.0535125732421875
1710531847508177700,11.443177734375,-0.9991455078125,0.061981201171875,0.05548095703125
1710531847518251800,11.453251708984375,-0.9977874755859375,0.0610504150390625,0.056671142578125
1710531847528326000,11.463325927734376,-0.996917724609375,0.0621490478515625,0.0557403564453125
1710531847538400000,11.47339990234375,-0.99639892578125,0.05926513671875,0.0575408935546875
1710531847548473900,11.483473876953125,-0.9945526123046875,0.058685302734375,0.0548248291015625
1710531847558547700,11.493547607421876,-0.99395751953125,0.0573272705078125,0.0552978515625
1710531847568621800,11.503621826171875,-0.99578857421875,0.0561370849609375,0.055511474609375
1710531847578695700,11.51369580078125,-0.9971160888671875,0.0556488037109375,0.055816650390625
1710531847588769800,11.523769775390624,-0.9948883056640625,0.0551910400390625,0.0545501708984375
1710531847598844000,11.533843994140625,-0.994964599609375,0.0549468994140625,0.05438232421875
1710531847608917800,11.543917724609376,-0.99761962890625,0.0569000244140625,0.0543212890625
1710531847618991900,11.553991943359375,-0.997833251953125,0.0567474365234375,0.05377197265625
1710531847629065700,11.564065673828125,-0.9948272705078125,0.05853271484375,0.05462646484375
1710531847639139800,11.574139892578126,-0.996307373046875,0.05810546875,0.0539703369140625
1710531847649213700,11.584213623046875,-0.9983367919921875,0.058349609375,0.0548858642578125
1710531847659287800,11.594287841796875,-0.9928131103515625,0.0604248046875,0.0586395263671875
1710531847669362000,11.60436181640625,-0.99462890625,0.058685302734375,0.0584259033203125
1710531847679435800,11.614435791015625,-0.99444580078125,0.0586700439453125,0.0590362548828125
1710531847689510000,11.624510009765626,-0.993560791015625,0.0592803955078125,0.0601959228515625
1710531847699583700,11.634583740234374,-0.9931640625,0.0568084716796875,0.057830810546875
1710531847709657900,11.644657958984375,-0.99267578125,0.0572967529296875,0.056671142578125
1710531847719731700,11.654731689453126,-0.993927001953125,0.05792236328125,0.0556640625
1710531847729805800,11.664805908203125,-0.9927825927734375,0.0568695068359375,0.0554656982421875
1710531847739880000,11.6748798828125,-0.994842529296875,0.05755615234375,0.0537567138671875
1710531847749953800,11.684953857421876,-0.994354248046875,0.0577392578125,0.0531463623046875
1710531847760028000,11.69502783203125,-0.9969024658203125,0.0594940185546875,0.0566253662109375
1710531847770101800,11.705101806640625,-1.00140380859375,0.058197021484375,0.0573883056640625
1710531847780176000,11.71517578125,-0.993865966796875,0.0582275390625,0.05657958984375
1710531847790249700,11.725249755859375,-0.987152099609375,0.057037353515625,0.054656982421875
1710531847800323800,11.73532373046875,-0.9987640380859375,0.0569915771484375,0.054168701171875
1710531847810398000,11.74539794921875,-0.9966888427734375,0.0584259033203125,0.0575408935546875
1710531847820471800,11.755471923828125,-0.997650146484375,0.0589599609375,0.05731201171875
1710531847830546000,11.7655458984375,-0.99603271484375,0.057342529296875,0.0579071044921875
1710531847840619800,11.775619873046875,-0.9935302734375,0.05755615234375,0.055694580078125
1710531847850694000,11.78569384765625,-0.9940948486328125,0.0578155517578125,0.05694580078125
1710531847860767700,11.795767822265624,-0.9981231689453125,0.0561981201171875,0.0554046630859375
1710531847870841900,11.805841796875,-0.9922943115234375,0.0532989501953125,0.0556793212890625
1710531847880916000,11.815916015625,-0.9887847900390625,0.05029296875,0.0577850341796875
1710531847890989800,11.82598974609375,-0.9942474365234375,0.049285888671875,0.0574188232421875
1710531847901064000,11.83606396484375,-0.999847412109375,0.0510711669921875,0.0573577880859375
1710531847911137800,11.8461376953125,-1.000244140625,0.0536956787109375,0.0585174560546875
1710531847921211600,11.856211669921874,-1.001190185546875,0.05560302734375,0.061676025390625
1710531847931285800,11.86628564453125,-0.9986114501953125,0.058319091796875,0.0609283447265625
1710531847941359900,11.87635986328125,-0.9960784912109375,0.0593719482421875,0.0596923828125
1710531847951434000,11.88643408203125,-0.995391845703125,0.059112548828125,0.0590057373046875
1710531847961507800,11.8965078125,-0.9934539794921875,0.0588226318359375,0.057708740234375
1710531847971582000,11.90658203125,-0.992584228515625,0.0571746826171875,0.0543212890625
1710531847981655800,11.91665576171875,-0.990234375,0.056060791015625,0.0531463623046875
1710531847991729700,11.926729736328125,-0.989501953125,0.0544586181640625,0.0529022216796875
1710531848001803800,11.9368037109375,-0.9908294677734375,0.0548095703125,0.0542449951171875
1710531848011878000,11.9468779296875,-0.9954376220703125,0.0553741455078125,0.05487060546875
1710531848021952000,11.956951904296876,-0.995574951171875,0.055328369140625,0.0565948486328125
1710531848032025900,11.96702587890625,-0.9956207275390625,0.0586090087890625,0.060821533203125
1710531848042099700,11.977099609375,-0.9974365234375,0.0596923828125,0.05987548828125
1710531848052173800,11.987173828125,-0.9993896484375,0.05682373046875,0.0599822998046875
1710531848062247000,11.997246826171875,-0.9972381591796875,0.05877685546875,0.0598602294921875
1710531848072321800,12.00732177734375,-0.9985198974609375,0.05865478515625,0.061126708984375
1710531848082396000,12.01739599609375,-0.9952850341796875,0.0576629638671875,0.05999755859375
1710531848092468700,12.02746875,-0.9940338134765625,0.0558013916015625,0.06048583984375
1710531848102544000,12.0375439453125,-0.993438720703125,0.05511474609375,0.05767822265625
1710531848112616700,12.04761669921875,-0.9928131103515625,0.0527191162109375,0.0584869384765625
1710531848122690800,12.05769091796875,-0.99462890625,0.05303955078125,0.05841064453125
1710531848132765000,12.067764892578126,-0.9913330078125,0.05181884765625,0.058502197265625
1710531848142838800,12.0778388671875,-0.9969940185546875,0.0515899658203125,0.0567626953125
1710531848152913000,12.087912841796875,-1.0006866455078125,0.0536346435546875,0.05572509765625
1710531848162986800,12.09798681640625,-0.993377685546875,0.0557708740234375,0.0562896728515625
1710531848173060900,12.108060791015625,-0.998687744140625,0.0593414306640625,0.055084228515625
1710531848183134700,12.118134765625,-0.9916839599609375,0.060638427734375,0.05517578125
1710531848193209600,12.128209716796874,-0.9933319091796875,0.0583038330078125,0.0529632568359375
1710531848203283500,12.138283447265625,-0.9932708740234375,0.0584869384765625,0.05401611328125
1710531848213357600,12.148357666015626,-0.9919281005859375,0.05950927734375,0.056915283203125
1710531848223431700,12.158431640625,-0.9919281005859375,0.0587615966796875,0.0597381591796875
1710531848233505800,12.168505859375,-0.9947357177734375,0.0561370849609375,0.0616302490234375
1710531848243579600,12.17857958984375,-0.9959564208984375,0.05224609375,0.0611572265625
1710531848253653500,12.188653564453125,-0.9962921142578125,0.05029296875,0.0600738525390625
1710531848263727600,12.1987275390625,-0.9989776611328125,0.048919677734375,0.0616607666015625
1710531848273801500,12.208801513671874,-0.9987945556640625,0.0483245849609375,0.059722900390625
1710531848283875600,12.21887548828125,-0.9969024658203125,0.0505523681640625,0.055877685546875
1710531848293949700,12.22894970703125,-0.993682861328125,0.0522003173828125,0.0534515380859375
1710531848304023600,12.2390234375,-0.9936065673828125,0.0551605224609375,0.05511474609375
1710531848314097700,12.24909765625,-0.9951934814453125,0.0569610595703125,0.05401611328125
1710531848324171500,12.259171630859376,-0.9953765869140625,0.0600433349609375,0.057342529296875
1710531848334245600,12.26924560546875,-0.9945831298828125,0.061798095703125,0.0591888427734375
1710531848344319500,12.279319580078125,-0.9947662353515625,0.060089111328125,0.060150146484375
1710531848354393600,12.2893935546875,-0.99261474609375,0.0591888427734375,0.0597686767578125
1710531848364467700,12.2994677734375,-0.993988037109375,0.0561981201171875,0.0587005615234375
1710531848374541600,12.30954150390625,-0.9954376220703125,0.055877685546875,0.0567169189453125
1710531848384615700,12.31961572265625,-0.9947662353515625,0.055694580078125,0.058685302734375
1710531848394689500,12.329689453125,-0.993499755859375,0.054962158203125,0.056884765625
1710531848404763600,12.339763671875,-0.9954071044921875,0.0555419921875,0.056610107421875
1710531848414837500,12.34983740234375,-0.996124267578125,0.0548095703125,0.05621337890625
1710531848424911600,12.35991162109375,-0.9943084716796875,0.056671142578125,0.05743408203125
1710531848434985700,12.36998583984375,-0.9936370849609375,0.05682373046875,0.059234619140625
1710531848445059600,12.3800595703125,-0.9969024658203125,0.0549468994140625,0.057891845703125
1710531848455133700,12.3901337890625,-0.996612548828125,0.0543060302734375,0.0576934814453125
1710531848465207600,12.40020751953125,-0.9940338134765625,0.052978515625,0.05560302734375
1710531848475281700,12.41028173828125,-0.994842529296875,0.0530548095703125,0.0567474365234375
1710531848485355500,12.42035546875,-0.9962158203125,0.052734375,0.0538330078125
1710531848495429600,12.4304296875,-0.9944915771484375,0.0541839599609375,0.0556488037109375
1710531848505503700,12.440503662109375,-0.993927001953125,0.0519866943359375,0.054931640625
1710531848515577600,12.45057763671875,-0.9955596923828125,0.0542755126953125,0.055572509765625
1710531848525651700,12.460651611328124,-0.997100830078125,0.054962158203125,0.0548858642578125
1710531848535725600,12.4707255859375,-0.9975738525390625,0.0561981201171875,0.0567626953125
1710531848545799700,12.480799560546876,-0.9946136474609375,0.0561065673828125,0.05755615234375
1710531848555873500,12.49087353515625,-0.9949493408203125,0.0579071044921875,0.0580291748046875
1710531848565947600,12.50094775390625,-0.998321533203125,0.057098388671875,0.0586700439453125
1710531848576021800,12.511021728515624,-0.99615478515625,0.0559234619140625,0.058074951171875
1710531848586095600,12.521095703125,-0.994384765625,0.0560760498046875,0.05999755859375
1710531848596169700,12.531169677734376,-0.99462890625,0.0565643310546875,0.0580902099609375
1710531848606243600,12.54124365234375,-0.994964599609375,0.055328369140625,0.05780029296875
1710531848616317400,12.5513173828125,-0.9943084716796875,0.0537872314453125,0.0559844970703125
1710531848626391600,12.5613916015625,-0.995391845703125,0.05419921875,0.055572509765625
1710531848636465700,12.571465576171875,-0.9962005615234375,0.054412841796875,0.05682373046875
1710531848646539800,12.581539794921875,-0.9936065673828125,0.055023193359375,0.0547332763671875
1710531848656613600,12.591613525390626,-0.99652099609375,0.054656982421875,0.0558929443359375
1710531848666687700,12.601687744140625,-0.9954071044921875,0.054718017578125,0.0546875
1710531848676761600,12.61176171875,-0.9948577880859375,0.0554046630859375,0.05609130859375
1710531848686835500,12.62183544921875,-0.99560546875,0.0551605224609375,0.058746337890625
1710531848696909600,12.63190966796875,-0.9961395263671875,0.0553131103515625,0.0582275390625
1710531848706983700,12.641983642578126,-0.995574951171875,0.0558013916015625,0.0597076416015625
1710531848717057800,12.652057861328124,-0.9950103759765625,0.055206298828125,0.0615234375
1710531848727131600,12.662131591796875,-0.9963836669921875,0.0558013916015625,0.0625
1710531848737205500,12.67220556640625,-0.99627685546875,0.0554962158203125,0.0629730224609375
1710531848747279600,12.682279541015625,-0.994873046875,0.0558013916015625,0.0603179931640625
1710531848757353500,12.692353515625,-0.992645263671875,0.054901123046875,0.05718994140625
1710531848767427600,12.702427490234374,-0.992767333984375,0.0547637939453125,0.0552520751953125
1710531848777501700,12.712501708984375,-0.993194580078125,0.0527801513671875,0.054595947265625
1710531848787575800,12.722575927734376,-0.996612548828125,0.0534210205078125,0.0550689697265625
1710531848797649700,12.732649658203124,-0.99365234375,0.05181884765625,0.0543670654296875
1710531848807723500,12.7427236328125,-0.99603271484375,0.0529632568359375,0.052490234375
1710531848817797600,12.752797607421876,-0.9996185302734375,0.0542755126953125,0.0517425537109375
1710531848827871500,12.76287158203125,-0.997528076171875,0.0557708740234375,0.0512542724609375
1710531848837945600,12.772945556640625,-0.9978485107421875,0.057891845703125,0.0528411865234375
1710531848848019700,12.783019775390626,-0.99603271484375,0.0573577880859375,0.0564117431640625
1710531848858093800,12.79309375,-0.9783477783203125,0.05413818359375,0.0597381591796875
1710531848868167700,12.803167724609375,-0.9900665283203125,0.051910400390625,0.0590972900390625
1710531848878241500,12.813241455078124,-1.0041656494140625,0.051483154296875,0.0582427978515625
1710531848888315600,12.823315673828125,-1.000823974609375,0.0536346435546875,0.0579071044921875
1710531848898389500,12.833389404296875,-1.0055389404296875,0.0572052001953125,0.0569915771484375
1710531848908463600,12.843463623046874,-0.9979095458984375,0.0593719482421875,0.053253173828125
1710531848918537700,12.853537841796875,-0.9881439208984375,0.06024169921875,0.0542449951171875
1710531848928611600,12.863611572265626,-0.993408203125,0.0565948486328125,0.0526123046875
1710531848938685700,12.873685791015625,-0.994293212890625,0.055389404296875,0.05352783203125
1710531848948759600,12.883759521484375,-0.9895172119140625,0.0517120361328125,0.0557403564453125
1710531848958833700,12.893833740234374,-0.9941558837890625,0.04736328125,0.060150146484375
1710531848968907500,12.903907470703125,-1.0015411376953125,0.0481109619140625,0.06414794921875
1710531848978981600,12.913981689453125,-1.000762939453125,0.048919677734375,0.0681304931640625
1710531848989055700,12.9240556640625,-1.00262451171875,0.0478057861328125,0.07366943359375
1710531848999129600,12.934129638671875,-1.0007476806640625,0.048004150390625,0.073394775390625
1710531849009203700,12.94420361328125,-1.006439208984375,0.047332763671875,0.08154296875
1710531849019277600,12.954277587890624,-1.0148162841796875,0.0480499267578125,0.0921173095703125
1710531849029351700,12.9643515625,-1.00469970703125,0.0473480224609375,0.0906219482421875
1710531849039425500,12.974425537109376,-0.99786376953125,0.0492095947265625,0.076263427734375
1710531849049499400,12.98449951171875,-0.994110107421875,0.0467071533203125,0.04205322265625
1710531849059573800,12.99457373046875,-0.9902496337890625,0.04180908203125,0.0095062255859375
1710531849069647600,13.004647705078124,-0.990753173828125,0.03863525390625,-0.00689697265625
1710531849079721700,13.0147216796875,-0.9957733154296875,0.0348663330078125,-0.0099029541015625
1710531849089795600,13.024795654296875,-1.0010528564453125,0.0366363525390625,0.0008392333984375
1710531849099869700,13.03486962890625,-0.993896484375,0.038848876953125,0.018768310546875
1710531849109943600,13.044943603515625,-0.9892578125,0.0432891845703125,0.0380401611328125
1710531849120017400,13.055017333984376,-0.988861083984375,0.0500335693359375,0.052703857421875
1710531849130091800,13.065091796875,-0.982025146484375,0.0561981201171875,0.062042236328125
1710531849140165600,13.07516552734375,-0.9726409912109375,0.0580596923828125,0.061676025390625
1710531849150239700,13.08523974609375,-0.969207763671875,0.0590667724609375,0.06463623046875
1710531849160313600,13.095313720703125,-0.974700927734375,0.054840087890625,0.077789306640625
