time,seconds_elapsed,z,y,x
1710531836094360600,0.029360595703125,0.1556499959170818,-0.2764988736964762,-0.1795261259418912
1710531836104434700,0.0394345703125,0.23640111045539378,-0.3130176094070077,-0.19384798995144664
1710531836114508500,0.049508544921875,0.3755161511570215,-0.40871290283799167,-0.23483829985177143
1710531836124582700,0.059582763671875,0.5238005867421627,-0.3528811255007982,-0.212173079986684
1710531836134656800,0.06965673828125,0.2069815392255783,-0.25175533145368095,-0.08818659830130636
1710531836144731000,0.07973095703125,-0.44105216090679167,-0.10496405703574418,-0.00727623808067292
1710531836154804700,0.0898046875,-0.8382283552080393,0.052288697902858255,0.10542626772001384
1710531836164878600,0.099878662109375,-0.5544505765497684,0.2066703543845564,0.30779844998661426
1710531836174952700,0.10995263671875,-0.23280805439949034,0.34279980340413746,0.47931759415417907
1710531836185027000,0.120027099609375,-0.027965280768275258,0.4096092671558261,0.5108452070465311
1710531836195101200,0.13010107421875,0.3136825030565262,0.38542679286189374,0.40966132613662626
1710531836205175000,0.140175048828125,0.2887070517539978,0.31166034957915545,0.243880542957969
1710531836215249400,0.15024951171875,0.09601824177503586,0.22023718050941823,0.049964163945429026
1710531836225323300,0.1603232421875,-0.07453940041661263,0.15732779293619095,-0.15064393125809727
1710531836235396000,0.17039599609375,-0.16920681210458277,0.12755772776827215,-0.32299572685752065
1710531836245470200,0.18047021484375,-0.03064998980760574,0.054435500673204656,-0.3468815197598189
1710531836255544000,0.1905439453125,0.03398644075393677,-0.039671500653028484,-0.28117420856375247
1710531836265618200,0.2006181640625,0.05562076493501663,-0.16076690053939818,-0.13208426528200506
1710531836275692300,0.2106923828125,0.10260989512503146,-0.3436903955683112,0.032045097427815195
1710531836285766100,0.22076611328125,0.160008191126585,-0.570454420563206,0.24635518944319337
1710531836295840300,0.23084033203125,0.04268938716948032,-0.689992069613561,0.43090091537907715
1710531836305914000,0.2409140625,-0.04177227232456207,-0.5641328163262457,0.3877878959700465
1710531836315988200,0.25098828125,-0.05507891314327717,-0.36423180994614957,0.3201157509744167
1710531836326062000,0.26106201171875,-0.154256495732069,-0.17549005709253251,0.25220808018986135
1710531836336136200,0.27113623046875,-0.1486105987995863,-0.004239610331133008,0.17281674623005092
1710531836346210300,0.281210205078125,-0.02393792494833469,0.17866035769172012,0.09142733378820121
1710531836356284200,0.2912841796875,0.10881810211539268,0.2565729608684778,0.039527379474602636
1710531836366358300,0.301358154296875,0.14696633872389792,0.3094889968894422,-0.03328706031292677
1710531836376432000,0.31143212890625,0.11838438736200332,0.2787369349468499,-0.10040135223008692
1710531836386506200,0.32150634765625,0.025395722541213035,0.20924130085110662,-0.1322404056917876
1710531836396580000,0.331580078125,-0.014032032483816147,0.1164967469844967,-0.12797105780951679
1710531836406654200,0.341654296875,-0.012514029136300087,0.02610796246379614,-0.07225527153480797
1710531836416728300,0.351728271484375,0.006498714369535446,-0.058703387250751256,-0.03988094215262681
1710531836426802200,0.36180224609375,0.04575812709033489,-0.12957009050399065,0.009472871342115104
1710531836436876300,0.371876220703125,0.07087444816827773,-0.15699746500328182,0.05352598461285233
1710531836446950100,0.3819501953125,0.03448562244772911,-0.18629720924571155,0.0731452061118558
1710531836457024000,0.39202392578125,0.004695464339852333,-0.19346242469996214,0.10196377924121916
1710531836467098000,0.40209814453125,-0.03608721242547035,-0.17448453331179917,0.09465067974887788
1710531836477172200,0.412172119140625,-0.0017787001103162765,-0.12856113265715538,0.1132300368061289
1710531836487246300,0.422246337890625,0.01153086331784725,-0.08513422499336301,0.12714381320513785
1710531836497320200,0.4323203125,-0.00547287845313549,-0.07714571045748889,0.13060995494574307
1710531836507394300,0.442394287109375,0.03825754220187664,-0.039058629451692105,0.14726031670179218
1710531836517468200,0.45246826171875,0.05572480983138084,0.0316232187539339,0.1229356939908117
1710531836527542000,0.4625419921875,0.06082184070944786,0.0866901491984725,0.08588913501389324
1710531836537616100,0.4726162109375,-0.034493221232295035,0.14946633884608745,0.0810356305681169
1710531836547690200,0.482690185546875,-0.06637362961769104,0.16746968611367047,0.054772039151191707
1710531836557763000,0.49276318359375,0.04668342524170875,0.18650325321182606,0.06717157506234943
1710531836567837200,0.502837158203125,-0.016045125871896743,0.15128244835734367,0.08686769772246479
1710531836577911000,0.5129111328125,0.037599370554089545,0.06495148786008358,0.09388027989827095
1710531836587985200,0.522985107421875,0.03829261351525783,-0.039132498405501245,0.08111428529489785
1710531836598059300,0.533059326171875,0.02586217100918293,-0.14076989523656666,0.08233560725077986
1710531836608133400,0.54313330078125,0.02202303123772144,-0.21808044086694717,0.06687580698616802
1710531836618207200,0.553207275390625,-0.021733108380436895,-0.2606706785108894,0.04244662792216986
1710531836628281000,0.563281005859375,-0.028629882156848904,-0.2403006021119654,0.026384477850235996
1710531836638355200,0.573355224609375,-0.005315057542920112,-0.17217559878230093,0.043123540803045035
1710531836648429000,0.583428955078125,0.008393149814009666,-0.10944777832105755,0.04321454355474561
1710531836658503200,0.593503173828125,0.020079495954513547,-0.028182138389348983,0.01838233664780855
1710531836668577300,0.603577392578125,0.023463293173909185,0.016616788280010224,-0.004802029986865818
1710531836678651100,0.613651123046875,0.003464461240172386,0.00794518685080111,-0.022326434631086883
1710531836688725200,0.623725341796875,-0.04746259292066097,-0.022249314274266362,-0.030036643682233986
1710531836698799000,0.633799072265625,-0.08158639631867408,-0.07473587283678353,-0.025139811551384627
1710531836708873200,0.643873291015625,-0.06466974830925465,-0.11543861623369156,0.010244915160536765
1710531836718947000,0.653947021484375,-0.019853870505094528,-0.14604863935708998,0.029337263241223988
1710531836729021200,0.664021240234375,0.03597206161320209,-0.1443609054658562,0.058186487237177786
1710531836739095300,0.67409521484375,0.0960597428292036,-0.09822904969230294,0.06987721729185432
1710531836749169200,0.684169189453125,0.14446107790470122,-0.04154489330947399,0.045215983037650585
1710531836759243300,0.6942431640625,0.085956281965971,0.024948417165130375,0.04332633336614817
1710531836769317000,0.704317138671875,-0.0061813189834356306,0.08971358867287635,0.008753105700202286
1710531836779391200,0.71439111328125,0.0070125091105699535,0.14533859139159322,0.007666223778948187
1710531836789465000,0.724465087890625,0.003082768446207046,0.16971673438809812,0.01552285556346178
1710531836799539200,0.734539306640625,-0.012110124510526656,0.08818440634422003,0.042112354466505346
1710531836809613300,0.74461328125,-0.01627133584320545,-0.0865334973320365,0.0625199498642236
1710531836819687200,0.754687255859375,-0.05267886626422405,-0.18118885325603187,0.09944843541942536
1710531836829761300,0.76476123046875,-0.0524935728251934,-0.24197905671820044,0.08980725830569863
1710531836839835100,0.774835205078125,0.0009194529324769973,-0.27157654179818924,0.04856774115096777
1710531836849909200,0.7849091796875,0.0041559506356716154,-0.2739868178103119,-0.004685746663436293
1710531836859983000,0.794983154296875,0.03246200766563415,-0.27880072089806196,-0.06609861206859349
1710531836870057200,0.80505712890625,0.033572014734148975,-0.1920052846942097,-0.11674663009233772
1710531836880131300,0.81513134765625,0.07395020235180855,-0.08090119053348899,-0.13761837240308522
1710531836890205200,0.825205078125,0.09437339717745781,0.03976772756911814,-0.08074453866705297
1710531836900278000,0.835278076171875,0.0445201097279787,0.13751454670242966,-0.018072722709365188
1710531836910352100,0.84535205078125,0.013365093007683753,0.2117773951999843,0.06091214934140443
1710531836920426200,0.85542626953125,0.0033417116433382033,0.23249014755673705,0.17248605297096073
1710531836930500400,0.865500244140625,-0.011586392897367476,0.22889526486992834,0.2787350352507084
1710531836940574200,0.87557421875,0.011363690057396889,0.16436485196612774,0.31981220145057887
1710531836950648300,0.8856484375,-0.019157704934477805,0.09447693061716854,0.31329332107584923
1710531836960722200,0.89572216796875,-0.011070260068774223,0.006401829866319895,0.2896286235783249
1710531836970796000,0.905796142578125,0.03780219964981079,-0.0760730397246778,0.24012009444590657
1710531836980870100,0.9158701171875,0.03178103966414928,-0.1345351655654609,0.16775003742501138
1710531836990944300,0.9259443359375,0.048668461579084395,-0.19537446886636314,0.08606891202758997
1710531837001018400,0.936018310546875,0.03444645948112011,-0.18673413935825228,0.03197886379119009
1710531837011092200,0.94609228515625,0.024938626423478126,-0.19669161587953565,-0.020318200081214308
1710531837021166000,0.956166015625,0.0482891068726778,-0.12139591720290481,-0.0635427170407027
1710531837031240200,0.966240234375,-0.18327976112067698,-0.1449308143083006,-0.08213299735076725
1710531837041314000,0.97631396484375,-0.09114391373693942,-0.17677118294425306,-0.09237363819498569
1710531837051388200,0.98638818359375,-0.24288638082146644,-0.04651807861216366,0.02680434723012149
1710531837061462300,0.996462158203125,-0.12463058827519416,0.1678142617676407,0.06429740786552429
1710531837071536400,1.006536376953125,0.07119827329516411,0.35172326070256527,0.0597048559108749
1710531837081610200,1.0166103515625,0.17451017920970915,0.41029366922341287,-0.016261526835244147
1710531837091684000,1.02668408203125,0.19100071076154707,0.3408469157706946,-0.032740349682979286
1710531837101758200,1.03675830078125,0.20220424182116983,0.17819895072504877,0.001041654540039599
1710531837111832000,1.04683203125,0.18146832778453825,0.03231755769364535,0.042128830677270884
1710531837121906200,1.05690625,0.19066285710930822,-0.06577288724556565,0.0778559776186943
1710531837131980300,1.066980224609375,0.22010756278038024,-0.10394932703524827,0.018109109196998176
1710531837142054400,1.077054443359375,0.20995967825353146,-0.13323292386047542,-0.056523193667456506
1710531837152128300,1.087128173828125,0.1581570103019476,-0.2106150003571063,-0.08740129314251244
1710531837162202000,1.0972021484375,0.05929974570870399,-0.3277800750572234,-0.0849943781312555
1710531837172276200,1.107276123046875,-0.04532499637007713,-0.34097076134607196,-0.12088310884255915
1710531837182350000,1.11735009765625,-0.2834486928343773,-0.3242270587507635,-0.20498488551564514
1710531837192424000,1.127423828125,-0.4003431338995695,-0.30690643305033444,-0.09435695749931036
1710531837202498300,1.137498291015625,-0.2190285353720188,-0.2740150209914893,0.10507412981409579
1710531837212572200,1.147572265625,-0.09423135835826396,-0.18773454857245087,0.2910143788482994
1710531837222646300,1.157646240234375,0.017191373297572136,-0.0578092148900032,0.4280722678244114
1710531837232719000,1.167718994140625,0.10979366914927959,0.06022665129527449,0.46324218274187295
1710531837242793000,1.17779296875,0.094056001791358,0.15799078688956797,0.3749129245668649
1710531837252867300,1.187867431640625,0.18075754916667938,0.22055442976504563,0.24095387838892637
1710531837262941200,1.197941162109375,0.08601064250171184,0.23343115473389625,0.09980082905367016
1710531837273015000,1.20801513671875,-0.15062427670955658,0.25868162358552216,-0.036575470866449175
1710531837283089200,1.218089111328125,-0.12987608771324158,0.2652053993310779,-0.12854352393522858
1710531837293163000,1.2281630859375,0.00027180267870426176,0.2061579478830099,-0.17697561947517096
1710531837303237000,1.238237060546875,0.12812427560985087,0.12340835300385951,-0.17427527447529137
1710531837313311000,1.24831103515625,0.09320026174485684,0.051267903487756845,-0.13317512925863265
1710531837323385300,1.25838525390625,0.0839560480594635,-0.04547404945194721,-0.08170556571893393
1710531837333459200,1.268459228515625,0.06860708775818347,-0.12425459456965326,-0.014581665723212062
1710531837343533000,1.278532958984375,0.03801321205198765,-0.18027531860768795,0.019626016565971075
1710531837353607200,1.288607177734375,-0.03423720064461231,-0.20880605123899876,0.06725406571403146
1710531837363681000,1.298680908203125,-0.07276245387196541,-0.19135434650480745,0.077783789165318
1710531837373755100,1.308755126953125,-0.03777589616477489,-0.17927542085014284,0.07197137655951082
1710531837383829000,1.3188291015625,-0.01986906807422638,-0.1462336405351758,0.07330737440362572
1710531837393903000,1.328903076171875,-0.0003156418204307556,-0.11442987758256494,0.058296450417675075
1710531837403977200,1.338977294921875,0.05003332019150257,-0.06147475166022777,0.029968035425432023
1710531837414051000,1.349051025390625,0.045750528305768964,-0.01803966068997979,0.006441138963401317
1710531837424125200,1.359125244140625,0.024430676901340483,0.0428377826642245,-0.028452954687364397
1710531837434199000,1.369198974609375,0.030246669703721998,0.05966507188975811,-0.025137911855243146
1710531837444273200,1.379273193359375,0.044611879664659494,0.07620389956273138,-0.03428173390608281
1710531837454347000,1.389346923828125,0.021033435678482055,0.08083134016767143,-0.030298655619285998
1710531837464421000,1.399421142578125,0.02900397616624832,0.062310983288660644,-0.026352000352740285
1710531837474495200,1.4094951171875,0.01646831972002983,-0.021151728295907377,0.037613618275150654
1710531837484569000,1.419569091796875,-0.002395370703935623,-0.1264252166070044,0.0836481511540711
1710531837494643200,1.429643310546875,-0.0016536124259233474,-0.22304705029837785,0.10781349165011196
1710531837504717000,1.439717041015625,0.046000119152665137,-0.22963030114620922,0.0918546192895621
1710531837514791000,1.449791015625,0.04716214866936207,-0.15020217883996664,0.02354541849941015
1710531837524865000,1.459864990234375,0.07180968319177627,-0.013447656724601983,-0.0344977512769401
1710531837534939100,1.469939208984375,0.04881926822662353,0.17352905921787024,-0.1175046088527888
1710531837545013200,1.48001318359375,0.005191723424196243,0.3346667658310383,-0.20012886031921953
1710531837555087000,1.490087158203125,0.04905541507005691,0.40627522736229,-0.24678229228146373
1710531837565161200,1.5001611328125,0.058793549752235406,0.3376490695774555,-0.16461871712934226
1710531837575234000,1.510234130859375,0.07607143228948116,0.18539879910126328,-0.006131415427103638
1710531837585308200,1.52030810546875,0.14780805024504662,0.025548721145838497,0.13973923701457677
1710531837595382300,1.53038232421875,-0.06994388931989669,-0.1330255647201091,0.2408446823934093
1710531837605456100,1.5404560546875,-0.008427636605501174,-0.25587723368927834,0.31128578064572066
1710531837615530000,1.550530029296875,-0.05092588511705398,-0.3232060451399535,0.27523155717439945
1710531837625604000,1.56060400390625,-0.10329553930163383,-0.32539617559537287,0.18079072078391908
1710531837635678000,1.570677978515625,-0.07436404384970664,-0.28429705329202115,0.08541366298925131
1710531837645752000,1.580751953125,-0.006616787791252136,-0.20708061568588018,-0.0037626039365306493
1710531837655826200,1.590826171875,0.03953881418406963,-0.1208949819434434,-0.12249248026795685
1710531837665900300,1.600900390625,0.04220598756670951,-0.03398899803720414,-0.1839752691041678
1710531837675974100,1.61097412109375,0.07281506084203719,0.03991305432394147,-0.1975512649161741
1710531837686048000,1.621048095703125,0.06729191350638866,0.11029416601732372,-0.17870426989868282
1710531837696122000,1.6311220703125,0.01248597208559513,0.11039309634715318,-0.08707224385123699
1710531837706196000,1.641196044921875,-0.04767652793228626,0.12086824006699025,0.015326383143290876
1710531837716270300,1.651270263671875,-0.050068391504883764,0.08340630522221326,0.13732293312046676
1710531837726344200,1.66134423828125,-0.016328618988394737,0.003088686730340123,0.24653770640324799
1710531837736418000,1.67141796875,0.024548165801167487,-0.06694594961293042,0.3099231139903888
1710531837746492200,1.6814921875,0.04630465505719185,-0.13160481120198964,0.3397190442519262
1710531837756566000,1.69156591796875,0.04081599451303482,-0.21093327252604066,0.3122783718796447
1710531837766640000,1.70164013671875,0.020994272711873055,-0.2523820850498974,0.22924155755694955
1710531837776714000,1.7117138671875,0.01395955176949501,-0.2910647938612848,0.15095855016522108
1710531837786788400,1.721788330078125,-0.0030184710383415222,-0.2810024687260389,0.09823679460734129
1710531837796862200,1.7318623046875,0.005552373430132865,-0.2476212273236364,0.0498492323288694
1710531837806936000,1.74193603515625,-0.006145078626275062,-0.1945625679615885,-0.006242766847088932
1710531837817010200,1.75201025390625,-0.030001170510053632,-0.10684139521494507,-0.04035670643821358
1710531837827084000,1.762083984375,-0.053582537105679506,-0.02592639535181224,-0.05768591730389744
1710531837837158100,1.772158203125,-0.016608020451664925,0.043213337978348136,-0.03455452296547591
1710531837847232000,1.78223193359375,0.010221534284949303,0.11641527924612163,0.014060454860702155
1710531837857306000,1.79230615234375,0.02508300333023071,0.1398548992834985,0.04831226855255663
1710531837867380200,1.802380126953125,0.029600773015618323,0.1408959327690303,0.08418474224880337
1710531837877453000,1.812453125,0.011858195576071739,0.1283972473323345,0.11538052937090396
1710531837887527200,1.822527099609375,-0.02261690547764301,0.10473412073738872,0.12221011966262012
1710531837897601000,1.83260107421875,-0.004701309558749199,0.041932577452808616,0.13031334661934524
1710531837907675100,1.842675048828125,0.020550620597600936,-0.015101707541942596,0.12720675890613348
1710531837917749200,1.852749267578125,0.020355390286445618,-0.07886106300801038,0.10931227884050458
1710531837927823000,1.862822998046875,0.026247370934486387,-0.13678937423303722,0.10733290505893528
1710531837937897200,1.872897216796875,0.026847090393304823,-0.18874679435491562,0.07136698092557489
1710531837947971000,1.88297119140625,0.028427053061127663,-0.18332389252334833,0.02956234070137143
1710531837958045000,1.893044921875,0.019953823748230935,-0.16876564420834184,0.010371902541071176
1710531837968119000,1.903119140625,0.004568038567900657,-0.1573874872341752,-0.025331863524764776
1710531837978193200,1.913193115234375,0.012374328404664993,-0.09679251408316195,-0.05127835181653499
1710531837988267300,1.923267333984375,0.012234043151140211,-0.0539342000875622,-0.06209186064526438
1710531837998341000,1.933341064453125,0.02719838804900646,0.004526829774677753,-0.08541563575062901
1710531838008415200,1.943415283203125,0.03510229304134845,0.07949446554072201,-0.08397727351058273
1710531838018489000,1.953489013671875,0.01846563101708889,0.1488254105940461,-0.08094090148936957
1710531838028563000,1.96356298828125,0.004589081355929375,0.23810331126339732,-0.059913347562402484
1710531838038637000,1.973636962890625,-0.028761984103918073,0.3321202231533825,-0.03530830047484487
1710531838048711200,1.983711181640625,-0.02096212400794029,0.37298407539613543,-0.04843457975797355
1710531838058785300,1.993785400390625,0.009565116202831268,0.3505605735987425,-0.03630165889374912
1710531838068859100,2.003859130859375,0.04012742772698402,0.2875216413617134,0.00478617483060807
1710531838078933200,2.013933349609375,0.0636257922142744,0.18744016873575745,0.029214477111771702
1710531838089007000,2.024007080078125,0.08255144195854663,0.054357174739986656,0.058637847733870145
1710531838099081000,2.0340810546875,0.08059446267187595,-0.08258622101098298,0.09570358633529394
1710531838109155000,2.044155029296875,0.08572890295088291,-0.15930895681604743,0.10602887325566261
1710531838119229200,2.054229248046875,0.04263151950240135,-0.2417344343073666,0.12308584305122494
1710531838129303300,2.06430322265625,-0.009304419440031051,-0.30067959442473946,0.141716163110733
1710531838139377200,2.074377197265625,0.008471475747227668,-0.3181127405889332,0.12237985020633786
1710531838149451000,2.084450927734375,-0.0006914893954992294,-0.2824316978115588,0.08948978985436261
1710531838159525000,2.094525146484375,-0.014909984362125395,-0.23723807273618874,0.06253649914022534
1710531838169599000,2.104598876953125,-0.02867021416723728,-0.18471344718560576,0.027864669938012957
1710531838179673000,2.114673095703125,-0.10397300017178059,-0.1307808545332402,-0.0008176730584353208
1710531838189747200,2.124747314453125,-0.020468787533044815,-0.07402604406699538,-0.005937829083763063
1710531838199820000,2.134820068359375,0.0651812049627304,-0.031363179578259584,-0.006823745072819292
1710531838209894100,2.14489404296875,-0.030368250256776808,0.02610036367923021,-0.0024374928126111627
1710531838219968000,2.154968017578125,-0.019822890844941137,0.06481821686923503,0.02142656318191439
1710531838230041900,2.165041748046875,-0.05476677845418453,0.0901796718146652,0.034205709527805446
1710531838240116200,2.1751162109375,0.019084055176377294,0.0755282653234899,0.03892112067714333
1710531838250190000,2.185190185546875,0.08108955271244049,0.03441774484328925,0.06348258435130119
1710531838260264200,2.19526416015625,0.011082535028457642,-0.0002069938141852617,0.08060881999079138
1710531838270338000,2.205338134765625,0.020374094986915586,-0.05119556890390813,0.09421711063720285
1710531838280412200,2.215412109375,0.04969897367060184,-0.09948862129934131,0.10275511228200047
1710531838290486000,2.225486083984375,0.010489829832315445,-0.13319931385181843,0.08187781701330095
1710531838300560000,2.235559814453125,-0.0191448454529047,-0.13943448191434143,0.06988211266268045
1710531838310634200,2.24563427734375,-0.035781507477164264,-0.115274146386981,0.08022040519509464
1710531838320708000,2.2557080078125,0.00440846409201622,-0.08383037585318089,0.05266315723843872
1710531838330782200,2.2657822265625,0.0313794731259346,-0.048509763886034486,0.032368374565429986
1710531838340856000,2.27585595703125,0.03512976557016372,-0.023614319017156958,0.027845490313507616
1710531838350930000,2.285929931640625,0.03885083191990852,-0.00011902326978743076,-0.005423559418693185
1710531838361004000,2.296004150390625,0.035706688675284384,0.03912022344581782,-0.017328553278557954
1710531838371078000,2.306077880859375,0.02468085227012634,0.06268171629719436,-0.05691343509405851
1710531838381152300,2.31615234375,0.01772328821718693,0.0936827845647931,-0.0662916504226625
1710531838391226000,2.32622607421875,0.014839841735363006,0.10113061635270715,-0.050213900922797615
1710531838401300200,2.33630029296875,0.019470424145460127,0.0886607186190784,-0.02471270871311426
1710531838411374000,2.3463740234375,0.04623334338665008,0.05685863616690039,0.012682809831947087
1710531838421448000,2.356447998046875,0.03631868309378624,0.0124121761970222,0.05808682625498622
1710531838431522000,2.36652197265625,0.04328618401885032,-0.01680010895766318,0.07930847798194736
1710531838441596000,2.376595947265625,0.028683658170700073,-0.04818871523812413,0.07475910758189856
1710531838451670300,2.386670166015625,-0.005182371073961258,-0.056290773151069874,0.07303038409315049
1710531838461744000,2.396744140625,-0.018391396737098692,-0.08465900869704783,0.05538246266711503
1710531838471818000,2.40681787109375,-0.012422259199619293,-0.07479841667897999,0.03559789453856647
1710531838481892000,2.41689208984375,-0.016774024668335913,-0.07372852242514491,0.0063535337451845406
1710531838491966000,2.426966064453125,-0.006163783326745033,-0.05205759256072342,0.01084320984724909
1710531838502040000,2.4370400390625,0.0101040453851223,-0.0505263644054532,-0.005188946945220232
1710531838512114200,2.4471142578125,0.04041033632159233,-0.0313558730546385,0.008051825563050806
1710531838522187000,2.45718701171875,0.01910334439873695,-0.02445632279925048,0.02392152180280536
1710531838532261000,2.46726123046875,0.08101882556378841,-0.01385667591691017,0.031125133038684725
1710531838542335000,2.4773349609375,-0.05202537079155445,0.0029526392605155704,0.04733706684485078
1710531838552409000,2.4874091796875,0.00504325486421585,0.006192644095048308,0.05962400922700763
1710531838562483200,2.497483154296875,0.016539631390571595,0.013686580047011374,0.05830920030139386
1710531838572557000,2.50755712890625,-0.01129471647441387,0.018957871513441204,0.02609440886247903
1710531838582631200,2.517631103515625,0.041019992652535434,0.02467011168040335,0.01675152057558298
1710531838592705000,2.527705078125,0.04527180487811565,0.005230740260332822,-0.008791976405866443
1710531838602779100,2.537779052734375,0.06970014369189739,0.0040378772139549254,-0.01765701804794371
1710531838612853000,2.54785302734375,0.03875321676433086,0.0008229337554425001,-0.006797624250873923
1710531838622927000,2.557927001953125,0.00033610008656978605,-0.009039704089239238,0.0033733123579993843
1710531838633001200,2.568001220703125,0.012499416089057922,-0.008046966724842786,0.033601423491723834
1710531838643075000,2.578074951171875,-0.009623568391799927,-0.015232932706177234,0.05007767078988254
1710531838653149200,2.588149169921875,0.01194528933763504,-0.027249314518645405,0.046343416165001684
1710531838663223000,2.59822314453125,0.015225041660666464,-0.040088045564666386,0.03438143142089248
1710531838673297200,2.608297119140625,-0.004279284754395485,-0.0566001313611865,0.0402589086195454
1710531838683371000,2.61837109375,0.02018237180709839,-0.06094678226336837,0.01833425972238183
1710531838693444900,2.62844482421875,0.02130114670395851,-0.053447512549161906,-0.00043714930824935433
1710531838703519200,2.638519287109375,0.007754267388582229,-0.047538580766320226,0.01074384112600237
1710531838713593000,2.648593017578125,-0.017778817796707154,-0.03532287698946893,0.014801847812533377
1710531838723667200,2.658667236328125,-0.03406476668715477,-0.013618044855445623,0.03823452665247023
1710531838733741000,2.668740966796875,0.032677111721038814,-0.009206438958272337,0.04223510406333953
1710531838743815200,2.678815185546875,0.05602583860456943,-0.0018556378040462732,0.04552011708337814
1710531838753889000,2.688888916015625,0.06150690036416053,-0.011890271214768289,0.04525507293902337
1710531838763963000,2.698962890625,0.00795943457186222,-0.03729023153968155,0.04947933957055211
1710531838774037200,2.709037353515625,-0.011122867038846015,-0.006682692634314299,0.05541278474014252
1710531838784111000,2.719111083984375,0.02034779150187969,-0.001923369278013706,0.041417905928939576
1710531838794185200,2.729185302734375,0.036983284482359886,0.007911284581199288,0.03611033757273108
1710531838804259000,2.739259033203125,0.062115972173213956,-0.002151259749755263,0.016050203905813396
1710531838814333000,2.7493330078125,0.03322071707844734,0.004178893119841814,0.007922755823284387
1710531838824407000,2.759406982421875,-0.017350363251566886,-0.0017754121746867894,-0.005507876701280475
1710531838834481000,2.76948095703125,-0.008804653224349021,0.014280454286932944,-0.013221446753293275
1710531838844554200,2.77955419921875,-0.0015729484051465988,0.024820845262706278,-0.013033048041723668
1710531838854628000,2.789628173828125,0.006841244196891784,-0.0025182664312422276,0.013034911205247043
1710531838864702000,2.799701904296875,0.013571429234743117,-0.0007925386171787977,0.03802592540308833
1710531838874776000,2.809776123046875,0.015355390042066572,-0.023659619463607666,0.032966194328106935
1710531838884850000,2.819849853515625,0.033743864169716836,-0.021849062910303474,0.056051703698188064
1710531838894924300,2.82992431640625,0.022215923461318014,-0.03340900619216263,0.07919709002934396
1710531838904998100,2.839998046875,0.018048866909742355,-0.05237367277257144,0.05601023917663842
1710531838915072000,2.850072021484375,-0.0025812486648559567,-0.047440819480270145,0.056773990090750154
1710531838925146000,2.86014599609375,0.00732639736533165,-0.0520209868773818,0.04246756111234426
1710531838935220000,2.870219970703125,0.0205173028498888,-0.04741298162527382,0.03264573020208627
1710531838945294000,2.880294189453125,0.013057634493708609,-0.038725671170279384,0.005109963424876332
1710531838955368000,2.890367919921875,0.019079379001259802,-0.012153086869418621,-0.0005249737221747637
1710531838965442300,2.9004423828125,0.0077519293010234825,-0.004564677567034959,0.0021347835389897226
1710531838975516200,2.91051611328125,0.0004085808008909225,0.011060469327121972,0.02098060951270163
1710531838985590000,2.920590087890625,0.029856793603301048,0.029659663596004245,0.03748447547014803
1710531838995664100,2.9306640625,0.03533493275344372,0.006245908652245998,0.0345982890419662
1710531839005738000,2.940738037109375,0.0031400515913963317,0.004611293187737464,0.04999810274764895
1710531839015812000,2.95081201171875,0.008676058408617973,0.002309153725206852,0.05673902837522327
1710531839025886000,2.960885986328125,0.022488310661911964,-0.015896218920499087,0.053042402346991
1710531839035960300,2.970960205078125,0.020742343777418137,-0.025570421520993113,0.044760786616057154
1710531839046034200,2.9810341796875,0.03785305305421352,-0.02077273891568184,0.040391887349449096
1710531839056108000,2.99110791015625,0.0178290866792202,-0.027511399520933625,0.03654321256466209
1710531839066182100,3.00118212890625,-0.0017874679386615752,-0.011976049802079796,0.021180260270647705
1710531839076256000,3.011256103515625,0.012259762114286423,-0.016215148676559328,0.011275208056345581
1710531839086330000,3.021330078125,0.029136662635207176,-0.021540362287312743,0.00845967571157962
1710531839096404000,3.031404052734375,0.0313490779876709,-0.0007134089663624763,0.011160495635494589
1710531839106478000,3.04147802734375,0.016630232283473014,0.006998042193800211,0.015073394762910901
1710531839116552200,3.05155224609375,0.021827800926566124,0.0059545244902372355,0.00986271090991795
1710531839126626000,3.0616259765625,-0.006148001235723495,0.000021919570863246917,0.02535659610722214
1710531839136700200,3.0717001953125,0.016008885514736174,0.0018009850073605774,0.030570896689407524
1710531839146774000,3.08177392578125,0.04176408901810646,-0.017866642210632562,0.04555953577831387
1710531839156848000,3.09184814453125,0.03263385710120201,-0.027615882808715103,0.04986293206065893
1710531839166921200,3.101921142578125,0.02424304537475109,-0.017016601252555847,0.06639839873276651
1710531839176995000,3.1119951171875,0.017093758141994476,-0.009137684570997952,0.04075275655109435
1710531839187069200,3.122069091796875,-0.01575987918972969,-0.002012143540009856,0.023629260857962072
1710531839197143300,3.132143310546875,0.011427987465262412,-0.011184095706790685,0.020287549214623866
1710531839207217200,3.142217041015625,0.04565583575963974,0.0005142331324517726,0.014869323558174073
1710531839217291000,3.152291015625,0.034834582015872,-0.011307502890750765,0.01894523122757673
1710531839227365400,3.162365478515625,0.019195698857307434,-0.023941139818727968,0.014608261469192802
1710531839237439200,3.172439208984375,0.03925473654568195,-0.03203011905439198,0.03264708190895617
1710531839247513300,3.182513427734375,-0.004943886142969131,-0.04792334230020642,0.030624891898967325
1710531839257587200,3.192587158203125,0.0038444004684686658,-0.04540924058742821,0.02624671334736049
1710531839267661000,3.2026611328125,-0.035191140368580814,-0.024537352146208283,0.01708360207416117
1710531839277735200,3.212735107421875,-0.09096212742924689,0.004074555962532759,0.017178404218144715
1710531839287809000,3.22280908203125,0.02238952646255493,0.019041531208902597,0.015279109935462474
1710531839297883400,3.23288330078125,0.12967267409563063,0.014063377470150589,0.004809701836667955
1710531839307957200,3.242957275390625,0.00922083280980587,0.020186755721271037,0.01986117702871561
1710531839318031400,3.25303125,-0.02640460732281208,0.02197312768138945,0.04275109076146036
1710531839328105200,3.263105224609375,-0.04918576345145702,0.02910429473556578,0.022897987441346048
1710531839338179000,3.273178955078125,0.02485387074947357,0.003642009764164686,0.01809570172615349
1710531839348253200,3.283253173828125,0.0427688821464777,-0.022256839993596074,0.005237316131591796
1710531839358327000,3.2933271484375,0.021475334227085113,-0.04935732062608003,0.013574571039900183
1710531839368401400,3.3034013671875,0.029191023170948027,-0.09544731001928448,0.015386844626255333
1710531839378475300,3.313475341796875,0.05659399388134479,-0.11893201130740344,0.018886267581954597
1710531839388549000,3.323549072265625,0.027213585618138313,-0.11935878535211085,0.01856178486794233
1710531839398623200,3.333623291015625,0.010067220506072044,-0.08021664233542979,0.02368190436065197
1710531839408697000,3.343697021484375,0.014029109874367713,-0.03327997298501432,0.06260430367942899
1710531839418771200,3.353771240234375,0.022819734573364257,0.0063825406439602375,0.04169354453254491
1710531839428845000,3.363844970703125,0.0004068272352218628,0.024054317869618532,0.03843238731212914
1710531839438919400,3.37391943359375,0.00499883120059967,0.07376388599947095,0.05330795794799924
1710531839448993300,3.3839931640625,0.07650807014107704,0.0707122433438897,0.0386069766940549
1710531839459067100,3.394067138671875,0.11125029769837856,0.06876812353879212,0.02493124683462083
1710531839469141200,3.404141357421875,0.11117723246216774,0.043916883137822146,0.0063554334413260215
1710531839479215000,3.414215087890625,0.10744155306518077,0.03697108258791268,-0.018983992335386574
1710531839489289200,3.424289306640625,0.10089724598824977,0.05131364232562482,-0.016062880724295972
1710531839499362300,3.4343623046875,0.12249649885594845,0.05778802597150206,-0.008734656728059053
1710531839509437400,3.4444375,0.05870061077177524,0.04941789170689881,0.014385229835659265
1710531839519510300,3.45451025390625,0.008998714491724968,0.04169774578362703,0.03498966297972947
1710531839529584000,3.464584228515625,0.021300562182068824,0.0410339481126517,0.023747590008005498
1710531839539658200,3.474658203125,0.033359248766303064,0.047254722323641175,0.02218253264836967
1710531839549732000,3.484732177734375,0.014092822760343552,0.06550400717630982,-0.01959500037319958
1710531839559806200,3.49480615234375,0.019290975925326345,0.06761778445988893,-0.01569817559774965
1710531839569880300,3.50488037109375,0.08306991287469863,0.09089578419476747,-0.03650291708689183
1710531839579954200,3.5149541015625,0.04079261363744736,0.09100508978813886,-0.015355938031338154
1710531839590028300,3.5250283203125,-0.005818330889940261,0.09979827177040278,-0.01578161609750241
1710531839600102100,3.53510205078125,-0.016449030497670172,0.07904357996806502,0.03384732454419136
1710531839610176000,3.545176025390625,-0.007479542100429534,0.05187660997062921,0.05201579924561083
1710531839620250000,3.55525,-0.027191958308219907,0.004055485935881733,0.07522537338677793
1710531839630324200,3.56532421875,0.007645546317100524,-0.06298501009270549,0.07444989550225437
1710531839640398300,3.5753984375,-0.0810322695672512,-0.11357720627598464,0.08663911313097923
1710531839650472200,3.58547216796875,0.01706745465695858,-0.14394815994650126,0.09929828635901213
1710531839660546300,3.59554638671875,0.011050970846414565,-0.17340630962103604,0.09922237157858907
1710531839670620200,3.6056201171875,-0.055700259912014,-0.17683906054869294,0.0837400672212243
1710531839680694000,3.615694091796875,-0.026836568999290464,-0.1629050085466355,0.05200557011254132
1710531839690768100,3.62576806640625,-0.07039864735007285,-0.12669241617582738,0.02303984359744936
1710531839700842200,3.63584228515625,-0.06204466050267219,-0.05981865501627326,-0.00044266573358327146
1710531839710916400,3.645916259765625,-0.02994213379919529,0.002400485270470381,-0.01692095885835588
1710531839720990200,3.655990234375,-0.019339491242170333,0.03725033792071044,-0.01244600540138781
1710531839731064300,3.666064208984375,0.016323942813277245,0.06868183349482715,-0.021133900378271935
1710531839741138200,3.67613818359375,0.041161446949839586,0.07447028070315719,-0.01761686870064586
1710531839751212000,3.6862119140625,0.08586275846362114,0.05205167427659035,-0.0028016134172677994
1710531839761286100,3.6962861328125,-0.002625087806582451,-0.010062763526663184,0.009500088142603636
1710531839771360300,3.7063603515625,-0.04461129514276981,-0.05048252526372671,0.024148024035058915
1710531839781434400,3.716434326171875,-0.020351883155107497,-0.0918506007015705,0.04493924845550209
1710531839791508200,3.72650830078125,-0.0013707038313150405,-0.12455715771280228,0.031166597560234367
1710531839801582000,3.73658203125,-0.016074351966381073,-0.12148403387777507,0.010443871798738836
1710531839811656200,3.74665625,-0.0019096330136060713,-0.1268120970327407,0.0220605502365157
1710531839821730000,3.75672998046875,0.01657470270395279,-0.10751417990997433,0.005105944836884737
1710531839831804200,3.76680419921875,-0.014346505260467528,-0.0744745184868574,0.00915467223841697
1710531839841878300,3.776878173828125,0.01919452981352806,-0.03513831420280039,0.014802541932277381
1710531839851951000,3.786951171875,0.06723521488308906,-0.02526486270315945,0.030756811182945966
1710531839862025200,3.797025146484375,0.042154549640417094,-0.0061652446314692496,0.03681969141848385
1710531839872099000,3.80709912109375,-0.0020066636472940444,0.018624913232028483,0.05501731914915144
1710531839882173200,3.817173095703125,0.01537818639576435,0.020169293129816652,0.06707659025527536
1710531839892247300,3.827247314453125,0.0776601627856493,0.028499241514503955,0.07291866734698414
1710531839902321200,3.837321044921875,0.08250292664170265,0.01686535621359944,0.07807086247839033
1710531839912395300,3.847395263671875,0.04859890347421169,0.0038278877250850197,0.05359919597953558
1710531839922469000,3.85746923828125,0.032383097210526464,0.012627426382899284,0.03136643098127097
1710531839932543200,3.867543212890625,0.01184767418205738,0.003320376594364643,0.006418086881376802
1710531839942617000,3.8776171875,-0.004048983129858971,0.02088131385669112,-0.023530513191223144
1710531839952691200,3.887691162109375,0.02149462344944477,0.02874415618628263,-0.04486684080641717
1710531839962765300,3.897765380859375,0.01111351468861103,0.032144612279534336,-0.043270474993064995
1710531839972839200,3.907839111328125,0.011819617131352425,0.021902911989390848,-0.014651771817356347
1710531839982913300,3.917913330078125,0.0032341596156358716,0.01319346276782453,0.002766359440796077
1710531839992987100,3.927987060546875,-0.015986089161038396,-0.008986877923458814,0.007268347035162151
1710531840003061200,3.938061279296875,0.009216156634688376,-0.0072909607257694,0.017684490576758978
1710531840013135000,3.948135009765625,0.01687222434580326,-0.028895839616656302,0.028604674650356172
1710531840023209200,3.958209228515625,0.0025029227316379545,-0.04316694155335426,0.04247366205956787
1710531840033283300,3.968283447265625,-0.012287234643101691,-0.058727644909173246,0.04407696907036006
1710531840043357200,3.978357177734375,-0.0067167410343885415,-0.06968816099315882,0.03873582723811268
1710531840053431300,3.988431396484375,-0.006090133568644523,-0.05663944045826792,0.02592847771104425
1710531840063505200,3.998505126953125,0.018189152163267136,-0.027454262506216763,0.03738539900984615
1710531840073579300,4.008579345703125,0.03125438544154167,-0.0131304805342108,0.031181575933657585
1710531840083653000,4.018653076171875,0.023196751192212102,-0.0022707944761961698,0.028473741747066378
1710531840093727200,4.028727294921875,0.019040216034650802,0.0074436670694500206,0.008939348987303674
1710531840103801300,4.03880126953125,0.043158173725008964,0.02174940192811191,0.014137538684904574
1710531840113875200,4.048875244140625,0.040783845809102055,0.03017228929325938,0.011796418918855488
1710531840123949300,4.05894921875,0.04663140279352665,0.012793795925751328,0.02404518471509218
1710531840134023200,4.069023193359375,0.022878186762332914,0.01967168233860284,0.013941358525678514
1710531840144097000,4.079096923828125,-0.012224690800905227,0.01956719905082136,0.024108605340123174
1710531840154171100,4.089171142578125,-0.002895136919617653,0.008381422843597828,0.007487506211176514
1710531840164245200,4.099245361328125,0.005820668977499008,-0.0017003376444801688,0.006777385180443525
1710531840174319400,4.1093193359375,0.014220248532295227,0.010213095250166952,0.024925584278814493
1710531840184393500,4.1193935546875,0.029368717825412748,0.007797777736745774,0.010253098466992377
1710531840194467600,4.129467529296875,0.003689502167701721,-0.00606540098618716,0.009566066050902008
1710531840204541400,4.13954150390625,0.002873509609699249,-0.014148388872481881,0.026125278924778103
1710531840214614300,4.1496142578125,0.026136311775445936,-0.024706936559453604,0.016798538055084643
1710531840224688600,4.159688720703125,0.004345920249819756,-0.03381236282866448,0.03737107822354883
1710531840234762500,4.169762451171875,0.015921207231283187,-0.025973595494404433,0.021034312461316585
1710531840244836600,4.179836669921875,0.005348375290632247,-0.005092975757457315,0.008710435602255165
1710531840254910500,4.189910400390625,0.03864098856151104,-0.008352379412204026,-0.0057407721417024726
1710531840264984300,4.199984375,0.03812660929858684,-0.02154525765813887,0.007162585105746984
1710531840275058400,4.210058349609375,0.004825812721252441,-0.01091733452938497,0.004490954743698239
1710531840285132300,4.22013232421875,-0.003805237501859665,-0.021650544663518664,-0.0015558876724913716
1710531840295206700,4.23020654296875,0.026457214292883873,-0.025183541095256803,0.018364399132318795
1710531840305280500,4.240280517578125,0.03665712126791477,-0.02568261319119483,0.01392276342306286
1710531840315354400,4.250354248046875,-0.0016208792001008987,-0.017774506947770715,0.03587883037179708
1710531840325428500,4.260428466796875,-0.027627427116036413,-0.02585420689843595,0.04944412212669849
1710531840335502300,4.27050244140625,-0.07855857293009758,-0.006112491530925035,0.042127880829200146
1710531840345576400,4.280576416015625,0.07181552841067314,0.003402136593684554,0.04775266190841794
1710531840355650300,4.290650390625,0.10197159722149371,0.0010361015820875763,0.004055339805409312
1710531840365724700,4.300724609375,-0.0010229133069515229,0.016745967617630957,0.017951434417255222
1710531840375798500,4.310798583984375,0.0818038384616375,0.003587685761041939,0.028333237297832964
1710531840385872400,4.320872314453125,-0.057145782545208926,0.01876198361515999,0.015079459177516399
1710531840395946500,4.330946533203125,-0.044164135897159576,0.03226232037506997,0.014893690814450381
1710531840406020400,4.341020263671875,0.04604395829439163,0.02829465885311365,-0.004992182264104485
1710531840416094500,4.351094482421875,0.02658756267428398,0.0352376098588109,0.0006435586005449295
1710531840426168300,4.361168212890625,0.017140519893169403,0.0024857889337465164,-0.002785867858864367
1710531840436242400,4.371242431640625,0.034575638818740845,-0.002248874905332923,-0.011959573591314256
1710531840446316500,4.381316650390625,0.03369885598421097,-0.025791407327912748,-0.013646759493276477
1710531840456390400,4.391390380859375,-0.011945873859524727,-0.04024469743110239,0.011935206335037946
1710531840466464500,4.401464599609375,0.03533084110021591,-0.038048429495841266,0.004801335867121816
1710531840476538400,4.411538330078125,0.02577157011628151,-0.031669943972490726,0.02389079787097871
1710531840486612500,4.421612548828125,-0.022968787655234336,-0.04051796141453087,0.025886574798077343
1710531840496686300,4.431686279296875,-0.0236544318318367,-0.01572904566004872,0.041764271681196986
1710531840506760400,4.441760498046875,-0.0007283142745494843,-0.015867833076231182,0.051472230420820414
1710531840516834600,4.45183447265625,0.013345803785324096,-0.008664733297005294,0.03995682040043175
1710531840526908400,4.461908447265625,0.03866086230576038,-0.008992540479265152,0.03584419744983315
1710531840536982500,4.471982421875,0.030153730723261832,-0.016359123724512755,0.013265724286437033
1710531840547056400,4.482056396484375,0.01852057607471943,-0.010655139929242432,-0.019390125450864434
1710531840557130200,4.492130126953125,0.045028643772006036,-0.0012417802220210433,-0.02042231804281473
1710531840567204400,4.502204345703125,0.04621989938318729,-0.008139942237921059,-0.011777020098641514
1710531840577278500,4.512278564453125,0.042599955320358276,-0.000979439491406083,-0.010412234551459551
1710531840587352600,4.5223525390625,0.03286357420384884,0.02187799674384296,0.008527041859366
1710531840597425400,4.53242529296875,0.024780220991373062,0.016956578161008654,0.002695595759525895
1710531840607499300,4.542499267578125,0.028359833043813704,0.020807335305027663,0.02339844777677208
1710531840617573400,4.552573486328125,0.003091536274552345,0.025183942954055964,0.05267736842688173
1710531840627647500,4.5626474609375,0.01660217523276806,0.014598288064450024,0.035535569892078636
1710531840637721600,4.5727216796875,0.009143091398477554,-0.0010923983465880155,0.05215155445449054
1710531840647795500,4.58279541015625,0.014401450318098067,-0.011144421283528208,0.042436179593391715
1710531840657869300,4.592869384765625,0.018173954594135282,-0.016074023172818124,0.03151347476914525
1710531840667943400,4.602943359375,0.013108487898111343,-0.022776991410180924,0.014440942078270017
1710531840678017300,4.613017333984375,-0.008594809865951538,-0.03342712637074292,0.013440131005272268
1710531840688091400,4.62309130859375,0.06371873119473458,-0.025813728757575153,0.022894991766661404
1710531840698165500,4.63316552734375,-0.01504442439675331,-0.025918321643210947,0.03221175923161208
1710531840708239600,4.643239501953125,-0.058764908179640765,-0.01161583818756044,0.040417131388559936
1710531840718313500,4.6533134765625,0.04855623337626457,-0.005919928100891411,0.04428494926523417
1710531840728387300,4.66338720703125,-0.0019511340677738189,-0.006334536783769726,0.029402583562396466
1710531840738461400,4.67346142578125,-0.003205518043041229,0.0005072919350117445,0.01995247204136103
1710531840748535300,4.683535400390625,0.023056465938687324,0.013261632633209227,-0.005839592873677611
1710531840758609400,4.693609375,0.048269817650318146,0.007537227104417979,-0.01896378979757428
1710531840768683500,4.70368359375,0.05149345587193965,0.014497238842770457,-0.012148922150954604
1710531840778757600,4.713757568359375,0.026885668838024138,0.009160079065896571,-0.008443784022703767
1710531840788831500,4.72383154296875,0.037601124119758605,0.014417415072210131,0.009649141224473714
1710531840798905300,4.7339052734375,0.04639584047198295,0.016613719540089368,0.025684111028537154
1710531840808979500,4.7439794921875,0.03290858238935471,-0.0004908522568643093,0.02504000443872064
1710531840819053300,4.75405322265625,-0.03685118253529072,-0.019665837119705973,0.03267152223046869
1710531840829127400,4.76412744140625,-0.05904489416480064,-0.025502215122990307,0.023250892532244324
1710531840839201500,4.774201416015625,0.006847673937678336,-0.04526669031158089,0.01094941016808152
1710531840849275400,4.784275390625,0.011946458381414412,-0.03758000826649367,0.017906499296985564
1710531840859349500,4.794349609375,0.024091654205322263,-0.03750011143069714,0.004460194279253483
1710531840869423400,4.80442333984375,0.02308919916450977,-0.017766908163204788,-0.008182977662049234
1710531840879497500,4.81449755859375,0.022056933507323264,-0.020124248411692677,0.015690722943656147
1710531840889571300,4.8245712890625,-0.01567746160328388,-0.009736234986037016,0.045686267430521545
1710531840899645400,4.8346455078125,-0.02996726824045181,-0.011573131556995212,0.04749028464518487
1710531840909719600,4.844719482421875,-0.0023567922592163085,0.00680847443845123,0.08194302773661911
1710531840919793400,4.85479345703125,0.016757073533535,0.0138298609752208,0.06149689042679965
1710531840929867500,4.864867431640625,0.011671148571372032,-0.0018553820757195353,0.048209027373790736
1710531840939941400,4.87494140625,0.021996727752685546,0.01344513597395271,0.044473092248477036
1710531840950015500,4.885015380859375,0.048016135150194164,0.00014711685311049222,0.03142331226766109
1710531840960089300,4.89508935546875,0.033467969837784765,-0.0057525356447324155,0.021756854582205415
1710531840970163500,4.90516357421875,0.013258125501871108,-0.0038643472779542206,0.013484189342707394
1710531840980236500,4.915236572265625,0.01879588588476181,-0.00786978352703154,-0.0026355726679787037
1710531840990310400,4.925310302734375,0.03690495854914188,-0.025125235036760566,-0.0013829787909984588
1710531841000384500,4.935384521484375,0.013693009787797927,0.0035204292111098764,-0.020825199755281208
1710531841010458400,4.945458251953125,0.005417348873615265,0.004402911134064197,-0.012255524330586194
1710531841020532500,4.955532470703125,0.037409985461831094,0.0068179363865405315,-0.011692118294164538
1710531841030606600,4.965606689453125,0.0299023863106966,0.005454466013610363,-0.012375899307243525
1710531841040680400,4.975680419921875,0.004469254368543624,0.00022653876487165687,-0.012835589240863919
1710531841050754600,4.985754638671875,0.014805939465761184,0.0030778365427628156,0.009717018828913569
1710531841060828400,4.995828369140625,0.0211012402176857,-0.000741612147539854,0.03950827291533351
1710531841070902300,5.00590234375,0.011680500921607016,-0.0030314766503870484,0.01834028760436922
1710531841080976400,5.015976318359375,0.0012099603116512297,-0.012779255943745373,0.025670959286019205
1710531841091050500,5.026050537109375,0.010796119302511214,-0.002809139136597514,0.028789018241316078
1710531841101124600,5.03612451171875,0.02590951728224754,-0.019247575175017118,0.024469693737477063
1710531841111198500,5.046198486328125,0.004221417087316512,-0.02651910054795444,0.023271095070056615
1710531841121272600,5.0562724609375,-0.006829553759098053,-0.008997581980563699,-0.0023333017857745286
1710531841131346400,5.066346435546875,0.0014063596665859221,-0.005831811426021159,0.023959552258253095
1710531841141420300,5.076420166015625,0.019207389295101164,-0.015065138391219078,0.009880794555880128
1710531841151494400,5.086494384765625,0.029681437036395072,0.0014964856354519724,0.01889715430215001
1710531841161568500,5.096568603515625,0.014438859719038008,-0.00757591514699161,0.020432108784466982
1710531841171642600,5.106642578125,0.016847089904546735,-0.029707375195249915,0.04000464159753173
1710531841181716500,5.116716552734375,0.00997545056939125,-0.01622143228687346,0.02871814496219158
1710531841191790800,5.126790771484375,0.00369651643037796,-0.012515636571496725,0.018255239669419825
1710531841201865000,5.136864990234375,0.004586158746480941,-0.02304360645711422,0.00547821221537888
1710531841211938800,5.146938720703125,0.016855857732892037,-0.002945405802130699,0.0044026919383555645
1710531841222012700,5.1570126953125,0.0027776480197906493,-0.0002950374238193035,0.018161058579944073
1710531841232086800,5.167086669921875,0.016969254979491234,-0.0018027751056477427,-0.0004876739190891385
1710531841242161000,5.177160888671875,0.031143910804390905,0.0013511223480105398,0.004918751701712608
1710531841252235000,5.187235107421875,0.01660334427654743,0.01720255227871239,0.015269757585227488
1710531841262308900,5.197308837890625,0.0068646250724792475,0.009293642317689955,0.010870134386792778
1710531841272383000,5.207383056640625,0.008244096732139586,0.009607019115798174,0.029780550029315053
1710531841282456800,5.217456787109375,0.022082652470469474,0.0174854608733207,0.03150905432235449
1710531841292530700,5.22753076171875,0.030528993776440617,0.00073193100374192,0.021378449723869562
1710531841302604800,5.237604736328125,0.04135959987044334,-0.008301197214238346,0.01721395045556128
1710531841312679000,5.247678955078125,0.02385316927433014,-0.03549699144735932,0.011075813026726245
1710531841322753000,5.2577529296875,0.008712883287668227,-0.03974642905276268,0.036856662428006524
1710531841332827000,5.267826904296875,-0.0067272624284029,-0.030090529293939468,0.021207330940663814
1710531841342900700,5.277900634765625,-0.007638532054424285,-0.021389336444064974,0.006872735313698649
1710531841352974800,5.287974853515625,-0.07820493718683719,-0.01845456163380295,0.03028948593214154
1710531841363048700,5.298048583984375,-0.05173018723726272,-0.01175809620246291,0.024287432505749166
1710531841373122800,5.308122802734375,0.12062778237462043,0.010600925523974,0.017092260304652152
1710531841383196000,5.31819580078125,0.036727848416566844,-0.001283938863314688,0.01257664604373276
1710531841393269800,5.328269775390625,0.022872926065325736,0.012941205039806664,0.01320723556485027
1710531841403344000,5.33834375,0.07494272052049636,0.017081592780165373,0.019506737567856907
1710531841413417700,5.348417724609375,-0.05386310761272907,0.03620148645490408,0.00335208690688014
1710531841423491800,5.358491943359375,-0.031308745977282525,0.03219590407535434,-0.023305801057256756
1710531841433566000,5.36856591796875,0.02011398274600506,0.015707381817512214,-0.022637034950219095
1710531841443639800,5.378639892578125,-0.020530162331461904,0.00930697672329843,-0.00447287109773606
1710531841453714000,5.3887138671875,0.0026759412109851836,-0.010310820003598929,0.008336195462383329
1710531841463787800,5.398787841796875,0.028964813199639318,-0.036588293815404176,0.01432801975570619
1710531841473862000,5.40886181640625,0.011229250022768974,-0.05275554822962731,0.004827895080484449
1710531841483935700,5.418935791015625,-0.009804770177602767,-0.03508936049453914,0.024694113610498607
1710531841494009900,5.429009765625,0.023631050956249237,-0.035876200023293496,0.01571918185316026
1710531841504084000,5.439083984375,0.006200023683905601,-0.025188874857500192,0.05163224328812212
1710531841514157800,5.44915771484375,-0.009426584514975547,-0.01385842948257923,0.06668499712180345
1710531841524232000,5.45923193359375,0.0009960253000259398,0.005160816829279065,0.054641873432882127
1710531841534305800,5.469305908203125,0.019485621714591977,0.010317834266275167,0.04784048632234335
1710531841544380000,5.4793798828125,-0.002720364874601364,-0.013249649934470652,0.027320406993478534
1710531841554453800,5.489453857421875,0.024732874718308446,-0.02823094596713781,-0.007534414092823863
1710531841564527900,5.49952783203125,0.03453238419890404,-0.0172323263624683,-0.017085063378885386
1710531841574602000,5.50960205078125,0.02141571299433708,-0.005077449394762516,-0.013484773864597082
1710531841584675800,5.51967578125,0.03461421726346016,-0.0006371288597583771,-0.02881908458601683
1710531841594750000,5.52975,0.016674071425199506,-0.0004992182264104485,-0.013325162856094539
1710531841604823800,5.53982373046875,0.024467501780390737,0.013834902476519346,-0.006393573494628072
1710531841614898000,5.54989794921875,0.03271978181898594,0.026870471268892287,0.021890308236144483
1710531841624971800,5.5599716796875,0.022903321203589438,0.022841946405172345,0.03105199473723769
1710531841635046000,5.5700458984375,0.027057518273591992,0.03576711362563073,0.036535979106277226
1710531841645120000,5.5801201171875,-0.0031821371674537655,0.013013795351982115,0.04653407989889383
1710531841655193900,5.59019384765625,0.0008335282146930694,-0.005688092106394469,0.021746406253427265
1710531841665268000,5.60026806640625,0.003516483688354492,-0.01649560958575457,0.024290793506614863
1710531841675341800,5.610341796875,0.010236731854081154,-0.03473159656543284,0.0075589640121906995
1710531841685416000,5.620416015625,0.0031955811709165572,-0.04271901512276381,-0.010354001558199525
1710531841695489800,5.63048974609375,0.02077390795946121,-0.044647827760875225,-0.021704503340460358
1710531841705564000,5.64056396484375,-0.0054740474969148635,-0.042028475575335324,-0.00887457665540278
1710531841715638000,5.650637939453125,0.04968260705769062,-0.03478186544794589,0.006371580858528614
1710531841725712000,5.6607119140625,-0.07313187170624733,-0.027232765242643654,0.03205722625702619
1710531841735786000,5.670785888671875,0.01523965470790863,0.017945443067885935,0.051946423803828655
1710531841745859800,5.68085986328125,0.049802434045076366,0.023503113727644083,0.05280041028466075
1710531841755933700,5.69093359375,-0.01134615440070629,0.010879559802263974,0.05395403729919344
1710531841766007800,5.7010078125,0.01147474921643734,0.004969458975642919,0.021597535834647713
1710531841776082000,5.71108203125,0.021999065840244292,-0.0036451150367036458,-0.01644260075688362
1710531841786156000,5.721156005859375,0.047749593168497084,-0.0039869142116978765,-0.018173479670099912
1710531841796230000,5.73122998046875,0.026655951735377312,0.010786657354421914,-0.0013198869595304132
1710531841806302700,5.741302734375,0.03729308108389377,0.011597206552326678,0.005498707014136016
1710531841816376800,5.751376953125,0.029391514179110526,0.01646992715522647,0.016313823278062044
1710531841826451000,5.761450927734375,0.018798223972320557,-0.0034171149671077725,0.032620851489156485
1710531841836525000,5.771525146484375,-0.015433715975284576,-0.008668423091433942,0.03822038852926343
1710531841846599000,5.781598876953125,-0.015120996764302253,-0.007549502064101397,0.03882182502113282
1710531841856672800,5.7916728515625,-0.004801847323775291,-0.0437545321829617,0.023549364022165536
1710531841866747000,5.801746826171875,-0.009153028270602225,-0.040942470436915755,0.01733114709444344
1710531841876820700,5.81182080078125,-0.006457213315367698,-0.022496092109568416,0.01536043154336512
1710531841886894800,5.821894775390625,0.012263269245624542,-0.023315043809637427,0.0014691227044910191
1710531841896969000,5.831968994140625,0.023783026647567748,-0.0003761398360133171,-0.00011544307321310043
1710531841907043000,5.84204296875,0.03228898918628693,0.014389906010776757,0.02480309041030705
1710531841917117000,5.852116943359375,0.017881693649291992,0.025167211014963685,0.030063275960832834
1710531841927190800,5.862190673828125,-0.0037421091377735135,0.03171349085327237,0.04017568731550127
1710531841937265000,5.872264892578125,-0.010985504394769668,0.017156265451572835,0.025916239283978938
1710531841947338800,5.8823388671875,0.010526070189476013,-0.0013910159669816493,0.009958864760771393
1710531841957412900,5.892412841796875,0.014829904863238335,-0.009185615365952252,0.022497370751202107
1710531841967487000,5.902487060546875,0.006259060394763946,-0.02357701921407133,0.01202434592321515
1710531841977560800,5.912560791015625,0.0441980381667614,0.006474200982786714,0.026658143692463634
1710531841987635000,5.922635009765625,0.07283201197683811,0.015325871686637401,0.018914068904332816
1710531841997708800,5.932708740234375,0.05181318934559822,-0.0017495105484500526,0.018408676665462552
1710531842007783000,5.942782958984375,0.035466450178623196,-0.007586253877915441,-0.019969423176161943
1710531842017856800,5.952856689453125,0.0052174423873424525,0.00414349301289767,-0.018189152163267136
1710531842027931000,5.962930908203125,0.008788871133327483,0.013083864913508296,0.01066335976831615
1710531842038005000,5.9730048828125,-0.0061859951585531234,0.011863346675224602,-0.004341244074702263
1710531842048078800,5.983078857421875,-0.025345453658699987,0.009596461189165711,0.017241130723431704
1710531842058153000,5.993153076171875,0.006831891846656799,0.017875373506359756,0.012927724503725766
1710531842068226800,6.003226806640625,0.040623102289438245,0.0130474418932572,0.015154314512014388
1710531842078301000,6.013301025390625,0.013227145841717719,0.005503310124017298,0.015121142894774675
1710531842088374800,6.023374755859375,0.01099368770122528,-0.030442009612731635,0.009485365497507154
1710531842098448600,6.03344873046875,0.01668868447244167,-0.030841420726478098,0.015562383856251834
1710531842108523000,6.04352294921875,0.022073884642124175,-0.0346846886837855,0.033573476038873194
1710531842118596900,6.053596923828125,0.019402035084366796,-0.026956249856203793,0.01079305056259036
1710531842128671000,6.0636708984375,0.013739187017083166,-0.039139074276760215,0.014395970425382256
1710531842138744800,6.073744873046875,0.01688917548060417,-0.012693696552142501,-0.006239405846223235
1710531842148819000,6.08381884765625,0.027062778970599173,-0.0036252778250724076,-0.006820530202426016
1710531842158892800,6.093892822265625,0.039161797565221784,0.010420746651478111,-0.004047375694662333
1710531842168966700,6.103966552734375,0.0036930092990398403,-0.0011874196862801908,0.0014933072976768015
1710531842179041000,6.114041015625,0.0060679217368364334,0.02498995475191623,0.02166015274208039
1710531842189114400,6.1241142578125,0.020410335344076155,0.01678425380140543,0.03215104202032089
1710531842199188500,6.1341884765625,0.011290624821186064,0.022798655252717435,0.031066571251861748
1710531842209262300,6.144262451171875,0.030168928292393683,0.027741445417143403,0.027754816355369985
1710531842219336200,6.154336181640625,0.016429741275310515,0.008244571656174957,0.04099847494047135
1710531842229410300,6.164410400390625,0.010453004953265189,0.010008950980193913,0.022187501084432005
1710531842239484400,6.174484375,0.006695113724470138,-0.005471965137682855,0.011336327126435935
1710531842249557200,6.18455712890625,0.0017296002715826034,-0.005765358593687415,0.011008154617995022
1710531842259631400,6.19463134765625,0.006330956587195396,-0.013857771895453333,0.0027300094857811924
1710531842269705200,6.204705322265625,0.01887421181797981,-0.026464118957705795,0.003653115680068731
1710531842279779300,6.214779296875,0.0017740239351987839,-0.021793168004602192,0.0021479352815076706
1710531842289853400,6.224853515625,0.022238135293126106,-0.03171984752882272,0.0065127428948879235
1710531842299927600,6.234927490234375,0.03268880215883255,-0.014054974967986345,0.02375537145566195
1710531842310001400,6.24500146484375,-0.0024777882903814314,0.008260463345050812,0.010549597195535897
1710531842320075300,6.2550751953125,0.01640636039972305,0.018466726995632052,0.01823792320843786
1710531842330149400,6.2651494140625,0.04293956253826618,0.014189415002614258,0.005110182620584964
1710531842340223200,6.27522314453125,0.015149638336896896,0.014878274049609898,0.015678886375389993
1710531842350297300,6.28529736328125,0.017710428735613824,0.0060369055440649385,-0.0029953458910807963
1710531842360371500,6.295371337890625,0.025320903739333152,-0.024013584000431,0.0072600175982341164
1710531842370445300,6.3054453125,0.013152911561727524,-0.02015990424696356,0.009470642852410673
1710531842380519400,6.31551953125,0.013601239851117133,-0.02547799399718642,-0.000900784764625132
1710531842390593300,6.32559326171875,-0.021279519394040106,-0.02187876392882317,0.00408624640032649
1710531842400667400,6.33566748046875,-0.07721767971515656,-0.0239069087555632,0.025739969401620325
1710531842410741200,6.3457412109375,0.05454758274555206,-0.015540975742042063,-0.007620046549662947
1710531842420815400,6.3558154296875,0.07658756511807441,-0.008646174727007747,-0.013037431955896317
1710531842430889500,6.365889404296875,-0.015071312403678892,0.01093205717448145,-0.010459252030961215
1710531842440963300,6.37596337890625,0.06665010847151279,0.02465674074217677,0.018959077089838683
1710531842451037400,6.386037353515625,0.008140636357665062,0.056855530894361433,0.03670556351952255
1710531842461111300,6.396111328125,-0.04119710278511047,0.03917224589399993,0.007267579850181937
1710531842471185400,6.406185302734375,0.06946399684846401,0.033512320436164734,-0.003920863238163292
1710531842481259300,6.41625927734375,0.05261982955336571,0.024841961115971208,-0.011589352039434016
1710531842491333400,6.42633349609375,-0.006285363879799843,0.0034808278530836104,-0.002611643803119659
1710531842501407500,6.436407470703125,0.01556640244424343,-0.020226320546679197,0.006081840664334595
1710531842511481300,6.4464814453125,0.04321896400153637,-0.046615328441560265,0.01397913325279951
1710531842521555500,6.456555419921875,-0.0073883566856384275,-0.056930678489804265,0.026311083820462225
1710531842531629300,6.46662939453125,-0.04227613019347191,-0.0567337676782161,0.02153849912378937
1710531842541703400,6.476703369140625,-0.03948094651699066,-0.04190729688107967,0.032201018641889095
1710531842551777300,6.48677734375,-0.04505845438838005,-0.017940949555858968,0.03895926073044538
1710531842561851100,6.49685107421875,-0.0009580313771963119,-0.002754559405148029,0.03322166692651808
1710531842571925500,6.506925537109375,0.006505144110321998,0.0023540523128584025,0.01810472528282553
1710531842581999400,6.516999267578125,0.03925765915513038,0.004973294900543987,0.010895853349938988
1710531842592073500,6.527073486328125,0.057929626399278636,0.01684500754531473,0.023202486813254652
1710531842602147300,6.537147216796875,0.04264496350586414,0.007697166906483471,0.005826477663777768
1710531842612221400,6.547221435546875,0.04006897553801536,0.00808539903908968,-0.004953165427967906
1710531842622295300,6.55729541015625,0.018783026403188706,0.004937200673855841,0.002065481162443757
1710531842632369200,6.567369140625,0.03205401138663292,0.012559767974168062,-0.03656166153680533
1710531842642443500,6.577443603515625,0.01956277860403061,0.038050146528892215,-0.020046981924399732
1710531842652517400,6.587517333984375,0.001211129355430603,0.029428960112668573,0.012049297701381146
1710531842662591500,6.597591552734375,0.030475802284479138,0.04440189017578959,0.010328246062435209
1710531842672665300,6.607665283203125,0.02744154915511608,0.029236323617398738,0.02553757869731635
1710531842682739200,6.6177392578125,-0.0017459668844938276,0.017197912636213005,0.03640402328968048
1710531842692813300,6.627813232421875,0.0009293898046016692,0.011236337350681424,0.03413962202165276
1710531842702887400,6.637887451171875,-0.0041559506356716154,0.00024159020353108643,0.019470424145460127
1710531842712960500,6.64796044921875,0.014408464580774306,-0.019090667580254374,0.011478256347775459
1710531842723034400,6.658034423828125,0.017992752808332443,-0.027673092888668177,0.011463131843879818
1710531842733108200,6.668108154296875,0.027245149800181386,-0.024851021205261347,0.0023965032150968907
1710531842743182300,6.678182373046875,0.029758009403944012,-0.03319689781144261,-0.012664616588130593
1710531842753256400,6.68825634765625,0.07105272734463214,-0.03439812682736665,0.011837518114224076
1710531842763330600,6.69833056640625,-0.08089490692317486,-0.00974105729162693,0.01851005468070507
1710531842773404400,6.708404296875,0.00870586902499199,0.0051002092158421875,0.03518529514968395
1710531842783478300,6.718478271484375,0.03898001125752926,0.006513181286305189,0.044679245812445874
1710531842793552400,6.728552490234375,-0.06747019268274307,0.018767500040493903,0.015982618562318383
1710531842803626200,6.738626220703125,0.045720717689394945,0.019159129706583917,-0.00013520721960812805
1710531842813700400,6.748700439453125,0.030800796455144882,0.025895233028568325,-0.028384821354597804
1710531842823774500,6.7587744140625,0.03112052992880344,0.0034716216333210465,-0.031176717095449565
1710531842833848600,6.7688486328125,0.03712123164832592,0.008876293688453734,-0.017014372762851417
1710531842843922400,6.77892236328125,0.03459434351921081,0.011740158686973154,-0.017475049077160656
1710531842853996300,6.788996337890625,0.06617898382842541,0.01719133676495403,0.023087409066222607
1710531842864070400,6.7990703125,0.04151566721498966,-0.00473115670774132,0.026850816720351577
1710531842874144300,6.809144287109375,-0.019338906720280647,-0.017175846934877333,0.026308380406722426
1710531842884218400,6.81921826171875,-0.0010334347009658812,-0.03792414552904665,0.046276086549833416
1710531842894292500,6.82929248046875,-0.004468669846653938,-0.04687595213912427,0.03917429172061383
1710531842904366300,6.839366455078125,-0.0263514158308506,-0.045024077194742856,0.010927307934127748
1710531842914440400,6.8494404296875,-0.005745265653729438,-0.01827971652355045,-0.0042097266495227815
1710531842924514300,6.859514404296875,-0.01042903955578804,-0.01076064613033086,-0.004645853044465184
1710531842934588400,6.86958837890625,-0.0018085107266902923,0.022520386300608514,-0.01031271969974041
1710531842944662300,6.879662353515625,0.006191840377449989,0.0428782608050853,0.013755297901667653
1710531842954736400,6.889736328125,0.03169511494636536,0.04724398173391819,0.03295333484653383
1710531842964810500,6.899810546875,0.029518355429172513,0.039218788449466226,0.051696065771952265
1710531842974884400,6.90988427734375,0.026613866159319877,0.0275577959459275,0.050744902526959776
1710531842984958500,6.91995849609375,0.03423836968839168,0.019148023790679872,0.03205339033212513
1710531842995032300,6.9300322265625,0.034248891082406044,-0.004846818976663053,0.03475614648479968
1710531843005106400,6.9401064453125,0.04709200604259967,-0.002329758121818304,0.008976539192534983
1710531843015180300,6.95018017578125,0.050931730335950845,-0.017626403713971374,-0.010044570282846688
1710531843025254400,6.96025439453125,0.046101825961470604,-0.018798150907084345,-0.03452924239374697
1710531843035328500,6.97032861328125,0.02347790622115135,-0.009427863156609236,-0.05631400789618492
1710531843045402400,6.98040234375,0.01778232492804527,0.009158106304518878,-0.02383117663823068
1710531843055476500,6.9904765625,-0.01322889940738678,0.01721212382465601,-0.015995733772218225
1710531843065550300,7.00055029296875,0.00048281508088111874,0.03736172587331384,0.0033753947172313926
1710531843075624400,7.01062451171875,0.0014858546435832975,0.03079202862679958,0.023605660786665976
1710531843085698300,7.0206982421875,0.00043254619836807247,0.0240615147953853,0.04365246004797518
1710531843095772200,7.030772216796875,0.03502045997679233,-0.003808817698433995,0.04372227388117462
1710531843105846500,7.040846435546875,0.04837970776557922,-0.009806706406362354,0.047866059155017134
1710531843115920400,7.05092041015625,0.030184125861525534,-0.023318550940975544,0.0221442464645952
1710531843125994500,7.060994384765625,0.021541385200619698,-0.04655406324099749,0.0159064480535686
1710531843136068400,7.071068359375,0.031437925314903255,-0.04524279797933996,-0.013658522996306419
1710531843146142500,7.081142578125,0.01721241608560085,-0.03824826291687786,-0.019669563446752726
1710531843156216300,7.09121630859375,-0.0018038345515727996,-0.03225073953513056,-0.03880673704985529
1710531843166290200,7.101290283203125,0.014157704690098761,-0.007284823245927691,-0.04195763882882893
1710531843176364500,7.111364501953125,0.00887654941678047,0.004609174295887351,-0.036295521413907406
1710531843186440400,7.1214404296875,-0.008533435067534446,0.03623188159316778,-0.007104059851542115
1710531843196514600,7.1315146484375,0.014471008422970772,0.05098912307899445,0.02616542827207595
1710531843206588400,7.14158837890625,0.016568272963166236,0.04912840724103153,0.03623714229017496
1710531843216662500,7.15166259765625,0.021363690546154973,0.039414676347747445,0.039888577469810844
1710531843226736600,7.161736572265625,0.030652912417054173,0.04137574728764593,0.055440147671103474
1710531843236810500,7.171810546875,0.044130818149447436,0.009577902619168162,0.04354136435631662
1710531843246884600,7.181884521484375,0.033815760362148284,-0.0007923194214701652,0.05795870636329054
1710531843256958500,7.19195849609375,0.03326514074206352,-0.021215039323084054,0.029811748885177073
1710531843267032300,7.2020322265625,0.004565700480341911,-0.030459216475859283,0.012325959218293428
1710531843277106400,7.2121064453125,0.00474222609102726,-0.03478215770889073,0.010229973319731652
1710531843287180500,7.2221806640625,0.028984686943888664,-0.022363953629881143,-0.027921843485347923
1710531843297254700,7.232254638671875,0.0319762699753046,-0.010586349009349941,-0.02626845025513321
1710531843307328500,7.24232861328125,0.0018763152658939361,-0.009526866551674902,-0.027591807813383638
1710531843317402600,7.252402587890625,0.023093290817737578,0.0228774195773527,-0.00311060630120337
1710531843327476500,7.2624765625,0.024415479332208632,0.024871917862817644,-0.006306479733064771
1710531843337550300,7.27255029296875,0.0016571195572614669,0.019205489598959683,0.011204371309839188
1710531843347624400,7.28262451171875,0.017071546310186383,0.022816885029152034,0.012522504703700543
1710531843357698600,7.292698486328125,0.007964110746979712,0.01051828874181956,0.002248107720352709
1710531843367772700,7.302772705078125,0.00429039067029953,0.0211120538726449,0.025570713781937954
1710531843377846500,7.312846435546875,0.03398410266637802,0.02148530763182789,0.008521744629740714
1710531843387920400,7.32292041015625,0.02309621342718601,0.014524309512786566,0.02940747893322259
1710531843397994500,7.332994384765625,0.0201034613519907,-0.024043869540840385,0.007368629071861505
1710531843408068400,7.343068359375,0.028599487018585203,-0.02475125062521547,-0.0005971256429329515
1710531843418142500,7.353142578125,0.021107085436582563,-0.022349048321694133,0.007127513792365789
1710531843428216600,7.363216552734375,0.019617723661661146,-0.03620448212958872,0.019894202515482903
1710531843438290700,7.373290771484375,-0.016897358787059783,-0.025353527367301284,0.011212445018440485
1710531843448364500,7.383364501953125,-0.07416764449477195,-0.0024134178172796963,0.017129815836064516
1710531843458438400,7.3934384765625,0.030679800423979758,0.014538666831701992,0.017078633638098834
1710531843468512500,7.403512451171875,0.0879161838620901,0.013915237703733145,-0.012311674964614211
1710531843478586400,7.41358642578125,-0.050120998474955554,0.030674539726972577,-0.0043740868983790275
1710531843488660500,7.423660400390625,0.024711831930279732,0.04131809881627559,0.019176665363274514
1710531843498734600,7.433734619140625,0.01585164912641048,0.057136795521155,0.00760028240326792
1710531843508808700,7.44380859375,-0.006869885769486427,0.07457129339221864,-0.0039016836136579513
1710531843518882600,7.453882568359375,0.06339256798028946,0.043227183840610084,-0.022297318134456873
1710531843528956400,7.463956298828125,0.029060090267658233,0.02088697641249746,-0.018227073020860553
1710531843539030500,7.474030517578125,-0.0025783260554075238,-0.01489266790114343,-0.0019144553191959856
1710531843549104400,7.4841044921875,0.018136545193195342,-0.05868537667002528,0.0014098302653059362
1710531843559178500,7.494178466796875,0.044645197412371634,-0.08880666642840951,0.0017157544093206523
1710531843569252600,7.504252685546875,-0.02524433137178421,-0.07962664055302739,0.02261602869480848
1710531843579326500,7.514326416015625,-0.030962709018588063,-0.0618394567867741,0.010860453242994844
1710531843589400600,7.524400634765625,0.0028121348112821578,-0.02219279831405729,0.023884660391137003
1710531843599474400,7.534474365234375,-0.0011170213311910628,0.008114625133574008,0.02418364333771169
1710531843609548500,7.544548583984375,-0.0023299042522907255,0.027032018506154415,0.01979706228394061
1710531843619622400,7.554622314453125,0.01574585066437721,0.035835429621487856,0.026170396708138286
1710531843629696500,7.564696533203125,0.0398147085160017,0.03060644292682409,0.006757365305721759
1710531843639770600,7.5747705078125,0.04983107561767101,0.019275522627867758,0.003255933056026697
1710531843649844500,7.584844482421875,0.02589139710366726,0.025109087619557977,-0.004029036320373416
1710531843659918600,7.594918701171875,0.05132219095826149,0.020073869931325317,-0.01334521926343441
1710531843669992400,7.604992431640625,0.04679799153208732,0.005562639095820486,-0.011567615131661295
1710531843680066600,7.615066650390625,0.03747194478213787,0.014972382073849438,-0.01747925032824278
1710531843690139600,7.6251396484375,0.04340718005001545,0.014916596766002476,-0.019340733351185916
1710531843700214300,7.63521435546875,0.037380759367346764,0.026027517638728022,-0.008560834531113505
1710531843710287600,7.64528759765625,0.03839607388973236,0.02558499803561717,0.017061536372825502
1710531843720361500,7.655361572265625,0.009358195453882216,0.036193705007247626,0.017537958245538172
1710531843730435600,7.665435546875,0.008910451686382293,0.04086432716678828,0.036692521374858914
1710531843740509400,7.675509521484375,0.010252513945102692,0.04979308169484138,0.0060004825238138436
1710531843750583300,7.685583251953125,0.03150689889788628,0.05060786867644638,0.013677848751284182
1710531843760657700,7.69565771484375,0.011011807879805564,0.006052322308905423,0.009401998062990606
1710531843770731500,7.7057314453125,0.01070610293149948,-0.007719086477346718,0.03009458441454917
1710531843780805600,7.7158056640625,0.018577859219908715,-0.04349233758281916,0.02132934988513589
1710531843790879500,7.72587939453125,0.012103694769740103,-0.08498981155399232,0.019813976886123418
1710531843800953300,7.735953369140625,0.0487684148222208,-0.10075991987679153,0.012158859023079276
1710531843811027500,7.74602734375,-0.07592939347028732,-0.10096187218967824,0.016018128267116842
1710531843821101300,7.756101318359375,-0.01924246060848236,-0.05429689592011273,0.0037796646691858767
1710531843831175700,7.76617578125,0.06279051043391227,-0.00829184486400336,0.0017088497444987295
1710531843841249500,7.77624951171875,-0.05651683699190616,0.01207275164220482,0.000039820553734898566
1710531843851323600,7.78632373046875,0.04562485609948635,0.04456117239072919,-0.0038207273319363594
1710531843861397500,7.7963974609375,0.028935002583265302,0.05221329457908869,-0.020126915292814372
1710531843871471400,7.806471435546875,0.027813889598846436,0.07908416770678013,-0.016781331191956995
1710531843881545500,7.81654541015625,0.04163900133371353,0.06794661455545574,-0.022854440560564397
1710531843891619300,7.826619384765625,0.019540566772222517,0.05297708202581852,0.002406549685075879
1710531843901693700,7.836693603515625,0.04444003022909164,0.04952029263544827,0.012300970907509326
1710531843911767600,7.846767578125,0.029694881039857863,0.01028491837736219,0.009194419726915657
1710531843921841400,7.85684130859375,-0.012121814948320387,-0.027328371104225514,0.021589315995573996
1710531843931915500,7.86691552734375,-0.003361585387587547,-0.05709799788072705,0.031659641774185
1710531843941989400,7.8769892578125,-0.007204232290387153,-0.07416808288618922,0.007487944602593779
1710531843952063500,7.8870634765625,0.009555763852596282,-0.07286653530094772,-0.00671301470734179
1710531843962137300,7.897137451171875,0.009679097971320152,-0.06874002995546907,-0.02196644221227616
1710531843972211700,7.907211669921875,0.007703998506069183,-0.05482252722941339,-0.0331360710022971
1710531843982285600,7.91728564453125,0.003801730370521545,-0.004371493082493543,-0.00509293922483921
1710531843992359400,7.927359375,0.009611293432116507,0.048278220152482385,0.016603307743929326
1710531844002433500,7.93743359375,0.03739537241458893,0.06307875279076397,0.04179119622074067
1710531844012507400,7.94750732421875,0.003658522507548332,0.08278378940969705,0.0442223688904196
1710531844022581500,7.95758154296875,0.028604163193702695,0.06576802840735763,0.06795125419795513
1710531844032655400,7.9676552734375,0.03580430383086204,0.05485584497712552,0.02980002191476524
1710531844042729500,7.9777294921875,0.04196048837304115,0.024159458744525908,-0.003772796536982059
1710531844052803600,7.987803466796875,0.02386485971212387,-0.00028374884482473134,-0.0035246304621919986
1710531844062877400,7.99787744140625,0.029368717825412748,-0.011877777059376239,-0.011940101705864072
1710531844072951600,8.00795166015625,0.04264087185263633,-0.043093839784525335,-0.014581227331794797
1710531844083025400,8.018025390625,0.023308979395031928,-0.039794031054154036,-0.00833769329972565
1710531844093099500,8.028099609375,0.01717500668466091,-0.019335107327997682,0.008948810935392975
1710531844103173400,8.03817333984375,0.0036930092990398403,-0.010998911865614355,0.005153108446858823
1710531844113247500,8.04824755859375,0.021480010402202605,0.016000957936607302,0.014773535033501683
1710531844123321600,8.058321533203125,0.015173603734374045,0.0340345907445997,0.004909107090532779
1710531844133395500,8.0683955078125,-0.003849661165475845,0.04637165587879717,0.0054151569165289395
1710531844143469600,8.078469482421875,-0.0020569325298070906,0.036167657250538464,-0.004465674171969294
1710531844153543400,8.08854345703125,0.031169629767537115,0.03496931431144476,0.007196268179640174
1710531844163617500,8.098617431640625,0.006802081230282783,0.02998597294092178,0.01679674795679748
1710531844173691400,8.10869140625,0.016993220376968383,0.0009559124853461981,-0.0032549101427197455
1710531844183765500,8.118765625,-0.004816460371017456,-0.005975859539210796,0.003750584705173969
1710531844193835800,8.128835693359376,0.002258592581748962,-0.006601078765466809,-0.0024940453054383394
1710531844203909600,8.13890966796875,0.007534487158060073,0.01863846683334559,0.006496595477685332
1710531844213983700,8.148983642578125,0.005772738182544708,0.0136307216739282,-0.006573021714761853
1710531844224057600,8.1590576171875,0.006252630653977393,0.038623343306966124,-0.00031830870155245063
1710531844234131700,8.169131591796875,0.017340426379442213,0.02287869821898639,-0.015111169490031898
1710531844244205800,8.179205810546875,0.018555647388100623,0.014054207783006131,-0.005936038985475897
1710531844254278700,8.189278564453126,0.023968320086598396,0.019011903255619106,-0.005765322061069309
1710531844264352800,8.199352783203125,0.013535773399472236,0.007013349360786378,0.015979513289779423
1710531844274426600,8.209426513671875,0.03033025633394718,0.0004395604610443115,0.005839008351787924
1710531844284500700,8.219500732421874,0.014207389050722122,-0.00639923605043441,0.025789032707735894
1710531844294574800,8.229574951171875,0.0079646952688694,-0.025790603610314426,0.01615939990133047
1710531844304648700,8.239648681640626,0.012346855875849723,-0.022825470194406807,0.023694106255099177
1710531844314722800,8.249722900390625,0.017009586989879606,-0.03343417716603726,0.004217836890742182
1710531844324796700,8.259796630859375,0.007890460988879203,-0.03064626348055899,0.02196311774402857
1710531844334870800,8.269870849609376,0.014787234765291214,-0.0163297149669379,0.01793495820648968
1710531844344944600,8.279944580078125,0.005362988337874412,-0.001998663003928959,-0.014120952876284718
1710531844355018800,8.290018798828125,0.0014735796838998795,0.02327105853743851,-0.004475903305038809
1710531844365092900,8.3000927734375,0.010298106652498244,0.01721712879333645,-0.008327281503565608
1710531844375166700,8.310166748046875,0.012402385455369948,0.03343530967719853,0.011267536206543445
1710531844385240800,8.32024072265625,0.023635142609477043,0.018911694284155962,0.03033727059662342
1710531844395314700,8.330314697265624,0.013639233773946761,0.01969214060474187,0.02008424519486725
1710531844405388800,8.340388916015625,0.019338906720280647,0.01660677834264934,0.026893961742334067
1710531844415462700,8.350462646484376,0.005717793124914169,0.011716156756877899,-0.008038637287914752
1710531844425536500,8.36053662109375,0.020534838506579396,-0.00529836213644594,-0.03640179479997605
1710531844435611000,8.37061083984375,0.027842531171441077,-0.00884677533302456,-0.0293522050820291
1710531844445684700,8.380684814453126,0.018517068943381308,-0.009099982909113168,-0.016272943278402088
1710531844455758800,8.3907587890625,0.004560439783334732,-0.0185230968253687,-0.012005495092272759
1710531844465832700,8.400832763671875,-0.00955108767747879,-0.014232231231033801,0.008232333229109644
1710531844475906800,8.41090673828125,0.007020692417025565,-0.024111235688626765,0.005787497360259295
1710531844485980700,8.420980712890625,0.032570728737115855,-0.0180505108775571,0.032287710544653236
1710531844496054500,8.431054443359375,0.027304771032929418,-0.013002872099168597,0.024350889663398264
1710531844506129000,8.44112890625,0.012045242580771446,0.012639847473055124,0.023316651244834063
1710531844516202800,8.45120263671875,0.005785597664117813,0.025794366469979284,0.012696107704937457
1710531844526276900,8.46127685546875,0.028280922588706014,0.031070334111526605,-0.004571143840439617
1710531844536350700,8.471350830078125,0.04838321489691734,0.04057005692794919,0.01615231257341802
1710531844546424600,8.481424560546875,0.030776246535778044,0.05310914744026959,0.007956511962413787
1710531844556498700,8.491498779296874,0.026763503763079642,0.03613857728652656,0.003889700914919376
1710531844566572500,8.501572509765625,0.015230886879563331,0.006873794759623706,0.013704663692973554
1710531844576647000,8.51164697265625,0.021045126116275785,-0.003503624206781387,-0.008269194640778004
1710531844586720800,8.521720703125,0.025524317356944083,-0.0019225290277972817,0.010675671260617673
1710531844596795000,8.531794921875,-0.0018517653465270996,-0.007149652558937668,0.016205942456796765
1710531844606868700,8.54186865234375,-0.03020341508388519,-0.0017497662767767905,0.007916910604387522
1710531844616942600,8.551942626953124,-0.04051262765228748,-0.019290647131763396,0.0030415961856022477
1710531844627016700,8.5620166015625,0.12182196059525012,-0.006989749289490282,-0.022875666011683643
1710531844637090600,8.572090576171876,0.03822948515117168,0.0035031858153641224,-0.022795294251851735
1710531844647165000,8.5821650390625,0.0015828852772712706,0.01241232232749462,-0.0023066695071756837
1710531844657238800,8.59223876953125,0.0434440049290657,0.028097017389163374,0.0017019450796768069
1710531844667313000,8.60231298828125,-0.03914192382097244,0.029335546208173035,-0.001857756695896387
1710531844677386800,8.61238671875,-0.0007768295913934707,0.03968286229725927,0.006816657744906842
1710531844687460600,8.622460693359375,0.026678748089075086,0.033343430142663416,-0.0036368221323937176
1710531844697534700,8.63253466796875,-0.006177811852097511,0.00916150383800268,-0.0012920125719159841
1710531844707608600,8.642608642578125,0.015133856245875358,-0.01153787758052349,0.004843859834596514
1710531844717683000,8.652682861328126,0.0426946478664875,-0.032041224970296024,0.01333287123851478
1710531844727756800,8.6627568359375,0.020983166795969007,-0.056976782653853295,0.008780907022580504
1710531844737830700,8.67283056640625,-0.009404372683167458,-0.0501591385282576,0.01709434266388416
1710531844747904800,8.68290478515625,-0.006593406915664672,-0.02146331499572843,0.03425232514850795
1710531844757978600,8.692978515625,0.00850362445116043,-0.012728183343634009,0.04603774774931371
1710531844768052700,8.703052734375,-0.011382394757866858,0.003925027956627309,0.03994801603946835
1710531844778126600,8.713126708984374,-0.005988426759839058,0.012625015230104326,0.035812888996116815
1710531844788201000,8.723200927734375,0.005371756166219711,0.024598800009861588,0.02028060801718384
1710531844798274800,8.73327490234375,0.04903671036958694,0.020894246403500436,-0.01637231199964881
1710531844808348700,8.7433486328125,0.04721826277077198,0.021996581622213122,-0.019548457817733286
1710531844818422800,8.7534228515625,0.027141689425706862,0.0200670017991215,-0.03330927214473486
1710531844828496600,8.76349658203125,0.01931961749792099,0.02019300279896706,-0.0411689726691693
1710531844838569700,8.77356982421875,0.05726151787936687,-0.014390636663138865,-0.026251608718186617
1710531844848644600,8.78364453125,0.0480494528979063,0.008729396031051873,-0.012487871781736612
1710531844858717700,8.7937177734375,0.02570435009896755,0.003725632927007973,0.013548450217954814
1710531844868791800,8.803791748046875,0.013840893825888633,-0.001390979434363544,0.03148428520727903
1710531844878865700,8.81386572265625,-0.005039747732877731,0.011790391036868094,0.04260748103968799
1710531844888939800,8.823939697265626,-0.0019207389295101164,0.026582667303457853,0.03329341698847711
1710531844899013600,8.834013671875,0.008255202648043632,0.038064723043516276,0.005995587152987718
1710531844909087700,8.844087646484375,-0.004758592703938484,0.013910999920032918,0.028031550937518475
1710531844919161900,8.854161865234374,-0.0007177928805351257,-0.004057970153912902,0.014187149980291724
1710531844929235700,8.864235595703125,0.0239724117398262,0.012553155570290983,0.02196253322213888
1710531844939309800,8.874309814453126,0.022311785051226614,-0.003586334054172039,0.008495660340413451
1710531844949383700,8.8843837890625,0.044860885989665984,-0.013176073241606355,0.0032435850311070677
1710531844959457500,8.89445751953125,0.021028174981474874,0.004991013220325112,0.0018364216469228267
1710531844969531600,8.90453173828125,0.06399813265800476,-0.0029303543634712696,0.009124386698007582
1710531844979605800,8.914605712890625,-0.05143208107352257,-0.0036077787009999155,0.01649491546601057
1710531844989679900,8.924679931640625,-0.03425415177941322,-0.004540894832648337,0.007932692695409058
1710531844999753700,8.934753662109374,0.07530746217966079,0.003828983703628182,-0.0013520721960812807
1710531845009827800,8.944827880859375,-0.035951603347063064,0.000717902478389442,-0.011223185608163475
1710531845019901700,8.954901611328125,0.03385959950387478,0.0016420681186020373,-0.01120707472357899
1710531845029975600,8.9649755859375,0.025820085433125493,0.01640997712891549,-0.03732899264749139
1710531845040049700,8.975049560546875,0.0452870024472475,0.004595912955515086,-0.04898662415016442
1710531845050123800,8.985123779296876,0.040085926672816276,0.03557955516427755,-0.03434351056329906
1710531845060198000,8.995197998046875,0.013497194954752921,0.05489858814030885,-0.013839286390691995
1710531845070271700,9.005271728515625,0.03180968123674392,0.039719577578455206,0.022450462869554755
1710531845080345600,9.015345703125,0.0022416414469480514,0.03420450395140797,0.062378933958336706
1710531845090419700,9.025419677734375,-0.006055062255263328,0.003116488052718341,0.050559389892220495
1710531845100493600,9.03549365234375,0.007359130591154098,-0.018943879520706832,0.050814095305651424
1710531845110568000,9.04556787109375,-0.011699205622076988,-0.0252280743567273,0.02834178593046963
1710531845120641800,9.055641845703125,-0.009092822515964508,-0.04279617201220244,0.015966288482025266
1710531845130716000,9.0657158203125,0.01128653316795826,-0.04735105883758515,-0.009238843390531838
1710531845140789800,9.075789794921874,0.04077040180563926,-0.030061266666837033,-0.03500307045057416
1710531845150863600,9.085863525390625,0.029988895550370216,0.0011138064607977866,-0.04414060889109969
1710531845160937700,9.095937744140626,-0.002673603123426437,0.02017893774099648,-0.03080613021738827
1710531845171011600,9.106011474609375,-0.008257540735602378,0.03881513955201953,0.013673355239257216
1710531845181086000,9.1160859375,0.008725158247351646,0.05592380300220102,0.04126432280242443
1710531845191160300,9.126160400390624,0.019563363125920295,0.05801463780160993,0.036600130383670326
1710531845201234400,9.136234375,0.02373158872127533,0.056369610540941355,0.0605048471821472
1710531845211308300,9.146308349609376,0.029157120901346204,0.035838607959263025,0.016996362182125448
1710531845221382400,9.15638232421875,0.03293020969927311,0.009209434632956981,0.024927009050920605
1710531845231456300,9.166456298828125,0.028888240832090375,0.0057745282808318735,0.007256473934277891
1710531845241530400,9.1765302734375,0.020486323189735412,0.00329213688056916,0.0033689284438267347
1710531845251604200,9.186604248046875,0.028251696494221684,-0.0015851502995938062,-0.011749620635062456
1710531845261678300,9.19667822265625,0.026750644281506537,-0.012804134656675159,0.0016742898877710104
1710531845271752400,9.20675244140625,0.01822422347664833,0.00019676468111574647,-0.018549875234439968
1710531845281826300,9.216826416015625,0.004132569760084152,0.017354747165739537,-0.02562664522025734
1710531845291900400,9.226900390625,0.021782208219170568,0.023589074978046118,-0.00828523246012628
1710531845301974300,9.236974365234374,0.024339491486549375,0.014859459751285612,-0.007315291449427604
1710531845312048400,9.24704833984375,0.007590016737580299,0.01331774673461914,-0.0025416838394477963
1710531845322122200,9.257122314453126,0.002952420064806938,0.020121471932716666,0.004189816372655332
1710531845332196400,9.2671962890625,0.009698971715569495,0.006873758227005601,0.0020176964979618786
1710531845342270500,9.2772705078125,0.007028291201591492,0.006465031295642257,0.00857599556762725
1710531845352344300,9.28734423828125,0.014231938970088958,0.011028978210315107,0.02506057230271399
1710531845362418400,9.29741845703125,0.008271569260954856,-0.0038037396645173426,0.019423004807159302
1710531845372492300,9.3074921875,0.008447510349750519,-0.013738091038540005,-0.006841317262127995
1710531845382566100,9.317566162109374,-0.0049812955439090725,-0.008944171292893589,-0.0100419399343431
1710531845392640300,9.32764013671875,-0.0031517420291900635,-0.00788881702106446,0.0038776451509445905
1710531845402714400,9.33771435546875,0.018277999490499495,-0.013822627516835927,0.014261420792900025
1710531845412788500,9.34778857421875,0.017560791131854055,0.009423260046727954,0.009811455646716058
1710531845422862300,9.3578623046875,0.021312252619862554,0.02503675303570926,0.007700052983313798
1710531845432936400,9.3679365234375,0.037326398831605906,0.03036090720053762,0.021467260518483817
1710531845443010300,9.37801025390625,0.01728080514669418,0.02537880793903023,0.017022738732397555
1710531845453084200,9.388084228515625,0.004599602749943733,0.03978350966013968,-0.00833794902805239
1710531845463158300,9.398158203125,0.02647474994957447,0.03348627267945558,0.0010585691422224045
1710531845473232400,9.408232421875,0.022001988449692724,0.028952282511629162,0.0029271394930779934
1710531845483306500,9.418306396484375,0.020836451801657677,0.014854272119514643,0.0023712591759860514
1710531845493380400,9.42838037109375,0.004106266275048256,-0.008472315997444092,-0.0038343539984896776
1710531845503453200,9.438453125,0.009830489140748976,-0.01565104852039367,-0.010428856892697512
1710531845513527300,9.44852734375,0.01748129615485668,-0.011326390254311263,0.012887100232392548
1710531845523601400,9.458601318359374,0.009431845211982726,-0.001994132959283888,-0.02319773757290095
1710531845533675500,9.468675537109375,0.019326047238707542,-0.0009866729497909545,-0.00271156051363796
1710531845543749400,9.478749267578126,0.03729541917145252,0.007498319866135716,-0.0026676848392933605
1710531845553823200,9.4888232421875,0.01487666661441326,0.01780596153195947,0.012824629455432295
1710531845563897300,9.4988974609375,0.017453239104151724,0.020827866636402903,-0.0064782561033964155
1710531845573971200,9.50897119140625,0.01672550935149193,0.011647219706512987,0.012262976984679699
1710531845584045300,9.51904541015625,0.007031798332929611,0.01135842936038971,0.018253230375424027
1710531845594119400,9.529119384765625,0.01855973904132843,-0.003007036328874528,0.0007090615848079323
1710531845604193300,9.539193359375,0.013041852402687073,-0.0008780980087816715,0.006408332672342657
1710531845614267400,9.549267333984375,0.013368600139021873,-0.0004470861803740263,-0.0026594284676015375
1710531845624341200,9.55934130859375,0.013683072915673255,0.006288432619720697,-0.010166881488263606
1710531845634415400,9.569415283203124,0.02085632554590702,-0.001107815111428499,-0.005500898971222341
1710531845644489200,9.5794892578125,0.027893969097733496,0.0030662922354415057,0.003986841146461665
1710531845654563300,9.589563232421876,0.034465748703479765,-0.004420154529809952,0.00884765211585909
1710531845664637400,9.599637451171875,0.021290040788054465,0.012552424917928873,0.014655900003202259
1710531845674711300,9.609711181640625,-0.0017488894939422606,0.009388700190000236,0.0014662366276606918
1710531845684785400,9.619785400390626,0.018646248281002045,0.011576675220951438,0.019080219251476228
1710531845694859300,9.629859375,0.029168811339139938,0.012430734767019749,0.00695887922719121
1710531845704933400,9.639933349609375,0.03998305082023144,0.016722404078952965,0.005596066441386938
1710531845715007200,9.65000732421875,0.04225099575221538,0.017092223772034048,0.016817060092464087
1710531845725081300,9.660081298828125,0.020401567515730856,0.014736819752305745,0.018092413790524006
1710531845735155500,9.670155517578126,0.03547580252885818,0.021167656517401337,0.00758037212640047
1710531845745229300,9.680229248046874,0.009408464336395262,0.022697058041766284,0.008546550277434289
1710531845755303400,9.690303466796875,-0.04821253450512886,0.027100407567247745,0.0027583222648128866
1710531845765377300,9.700377197265626,-0.06974047570228577,0.027841289062425494,0.01582381127141416
1710531845775451400,9.710451416015625,0.010430793121457099,0.02318067684024572,0.031998920198529957
1710531845785525200,9.720525146484375,0.13862111970484256,0.012433365115523337,0.002414623393677175
1710531845795599000,9.73059912109375,-0.019095745614171027,0.009303031200543046,-0.018964703113026917
1710531845805673500,9.740673583984375,0.024698972448706627,-0.0064994084892794485,-0.010973412098176778
1710531845815747300,9.750747314453125,0.03642798868715763,0.010449936213344335,0.03481536585874855
1710531845825821400,9.760821533203124,-0.0668283876478672,0.012934154244512318,0.005933700897917151
1710531845835895300,9.770895263671875,0.0059451721400022505,0.02334869035091251,-0.01207538199070841
1710531845845969400,9.780969482421876,0.0643318946570158,0.019866620388813316,0.0032318945933133363
1710531845856043300,9.791043212890624,0.03111877636313438,0.003287643368542194,-0.004026040645688772
1710531845866117000,9.8011171875,0.015536591827869414,-0.036942185286991294,-0.005768317735753953
1710531845876191500,9.81119140625,0.033742110604047776,-0.041174744822829956,-0.0053982788469642395
1710531845886265300,9.821265380859375,0.02139876185953617,-0.03908800167664885,-0.0059302668318152426
1710531845896339500,9.83133935546875,-0.008318331012129783,-0.01761029282938689,-0.002383826396614313
1710531845906413300,9.841413330078124,-0.0012368483185768127,0.0011214052453637122,0.01622198027614504
1710531845916487200,9.851487060546875,-0.009689034843444824,0.0046977293621748685,0.03651910103671253
1710531845926561300,9.861561279296875,-0.01480477042198181,0.0065100394811481235,0.06384871424995363
1710531845936635100,9.87163525390625,0.007501169410347938,0.019345920982956885,0.051459407471865413
1710531845946709500,9.88170947265625,0.028005612778663633,0.019327800804376603,0.03669526132121682
1710531845956783400,9.891783447265626,0.042810967722535134,0.004549516530521214,0.014048764422908425
1710531845966857500,9.901857421875,0.036060324418544766,-0.0024138927413150666,-0.012025295771285891
1710531845976931300,9.911931396484375,0.0192407070428133,-0.01568765420373529,-0.020417203476279972
1710531845987005200,9.922005126953126,0.02859130371212959,-0.005106748554483056,-0.042750871565751726
1710531845997079300,9.932079345703125,0.04019757035374641,0.0009869652107357978,-0.028503844624385235
1710531846007153200,9.942153076171875,0.027409400451183317,0.016616861345246432,-0.028470636474527418
1710531846017227500,9.9522275390625,0.02944704375863075,0.01974200762845576,0.004886676063016056
1710531846027301400,9.96230126953125,0.022637363743782044,0.045860126160085196,0.03228146346695721
1710531846037375200,9.972375244140625,0.01598550463914871,0.055153330086357887,0.027141397164762018
1710531846047449300,9.982449462890624,-0.013838555738329886,0.05486972737200558,0.03329929873999208
1710531846057523200,9.992523193359375,-0.006360767203569412,0.04798672639261931,0.026825426550768316
1710531846067597300,10.002597412109376,0.012970540732145309,0.026661504693329334,0.027524003274179993
1710531846077671200,10.012671142578125,0.006883329772949218,-0.0035849823473021384,0.016556326797045766
1710531846087745500,10.02274560546875,0.0414922863394022,-0.016076288195140658,0.008370682253874839
1710531846097819400,10.0328193359375,0.007556698989868164,-0.025144999183155596,0.020686668067425487
1710531846107893200,10.042893310546875,0.03179740627706051,-0.030880291432142257,0.011313859566301107
1710531846117967400,10.05296728515625,0.05913666410148143,-0.027987200339138506,-0.025471491191163657
1710531846128041200,10.063041259765624,0.04045475998520851,-0.026284962998516855,-0.009411533076316118
1710531846138115300,10.073115234375,0.004960252755880356,0.0007922463562339544,0.003978182915970683
1710531846148189200,10.083189208984376,-0.03410919035077095,0.026066644072718918,0.01849295741543174
1710531846158263600,10.093263671875,0.08624035960435866,0.03131312989145517,0.029958135085925458
1710531846168337400,10.10333740234375,-0.020957447832822797,0.02356405013464391,0.012951361107639968
1710531846178411300,10.113411376953126,0.01237140579521656,0.02957205837778747,0.011104527664557098
1710531846188484600,10.123484619140624,0.019915245303511617,0.015035693101026117,0.0086647698296234
1710531846198558700,10.133558837890625,0.013974164816737173,0.019148790975660083,-0.017187793100997804
1710531846208631800,10.1436318359375,0.017016016730666158,0.023715039445273575,-0.010494761735759675
1710531846218705700,10.15370556640625,0.010493336963653564,0.014478534142300485,-0.0061197249893099066
1710531846228779800,10.16377978515625,0.06397942795753479,-0.003745616269111633,0.008175890334136784
1710531846238853600,10.173853515625,0.06212123287022114,-0.011383271540701389,0.020609949569404123
1710531846248927500,10.183927490234375,0.032765959048271176,0.00045673079155385493,0.03199680130667984
1710531846259001900,10.194001953125,-0.0009118541479110718,-0.009235847715847194,0.0553343126764521
1710531846269075700,10.20407568359375,-0.021740707165002822,-0.014960180179402231,0.02663596839327365
1710531846279149800,10.21414990234375,-0.04662555757462978,-0.01003667923733592,0.024866218774393198
1710531846289223700,10.2242236328125,-0.00478489618897438,-0.03286905409656465,0.007223338849656284
1710531846299297800,10.2342978515625,0.031212299865484235,-0.006901303821057081,0.00891015942543745
1710531846309371600,10.24437158203125,0.01138882449865341,-0.0014054828837513924,-0.003106879974156618
1710531846319445500,10.254445556640626,0.005873860469460487,0.003229227712191641,0.001958586721867323
1710531846329519900,10.264519775390625,0.014696633872389793,0.008301124149002134,-0.00451594305448234
1710531846339593700,10.27459375,0.026478841602802276,0.01443286836966872,0.00983922043647617
1710531846349667800,10.284667724609376,0.018663783937692642,0.018934052246436475,-0.005330876166559756
1710531846359741700,10.29474169921875,0.021795652222633362,0.035062655150704086,-0.0049197015497833485
1710531846369815600,10.304815673828125,0.049019759234786034,0.014230769926309585,0.013324541801586747
1710531846379889700,10.3148896484375,0.035090018081665036,0.012064166476950048,0.02601359871122986
1710531846389963500,10.324963623046875,0.02609130358994007,0.02783774539846927,0.011071648308262228
1710531846400038000,10.335037841796876,0.021571195816993714,0.027536680092662573,0.0037807241151109334
1710531846410111700,10.34511181640625,0.02800093660354614,0.024705840580910444,0.021040742202103137
1710531846420185900,10.355185791015625,0.024711247408390043,0.014847002128511666,0.013884440706670283
1710531846430259700,10.365259765625,-0.0014729951620101928,0.022174020548351107,0.00016008593253791331
1710531846440333600,10.37533349609375,-0.00788929194509983,0.024575930590927598,0.0028543665178120134
1710531846450407700,10.38540771484375,0.01203939736187458,0.01916435387097299,0.026391638243384658
1710531846460481500,10.3954814453125,0.0014385083705186843,0.008239018698222935,0.011400368805974722
1710531846470556000,10.405555908203125,-0.012166238611936568,0.009798267371580004,0.004064984416589141
1710531846480629800,10.415629638671875,0.020767478218674657,-0.009612681671604513,0.014877105005830525
1710531846490704000,10.425703857421874,0.02795709746181965,-0.014240085743926465,0.018424312626011668
1710531846500777700,10.43577783203125,0.02198386827111244,-0.007876359398290515,-0.008363375730253756
1710531846510851600,10.4458515625,0.015421441015601157,-0.022934812320396302,-0.00652925563827157
1710531846520925700,10.45592578125,0.022327567142248154,-0.029784020628035066,-0.007803769086115062
1710531846530999600,10.46599951171875,0.003942600145936012,-0.014061916165426373,-0.01027560255974531
1710531846541074000,10.476073974609376,0.012046411624550819,0.011729966086521744,-0.010200674160011112
1710531846551147800,10.486147705078125,0.028804069679975508,0.026403657474741337,-0.0015448182892054318
1710531846561221600,10.4962216796875,0.016070260313153267,0.04171816751714796,0.013726765926927327
1710531846571295700,10.506295654296874,0.04584288276433945,0.046485089658014477,-0.0056332566466182465
1710531846581369600,10.51636962890625,0.027440964633226393,0.0218614109352231,-0.0032174276765435934
1710531846591443700,10.526443603515625,0.02745850028991699,0.031140440205670892,0.021958660764619706
1710531846601517600,10.536517578125,0.02835866400003433,0.023085290174372494,0.01602532519288361
1710531846611592000,10.546592041015625,0.014600187760591505,0.016474493732489645,0.034334231278300285
1710531846621665800,10.556665771484376,0.0018903437912464142,0.008636420517973602,0.016632131979614495
1710531846631739600,10.56673974609375,0.004562193349003791,0.01789141132570803,0.025124065992981195
1710531846641813800,10.576813720703125,-0.0036935938209295273,0.022780973465554414,0.012466975124180317
1710531846651887600,10.5868876953125,0.022457915523648262,0.020630700096487996,0.012518413050472736
1710531846661961700,10.596961669921875,0.01825286504924297,0.02490483375173062,-0.00038899931758642196
1710531846672035600,10.60703564453125,0.028719314005970952,0.001457286136224866,0.012306377734988928
1710531846682109700,10.617109619140624,0.01090308680832386,-0.0023029431801289317,0.002314414422214031
1710531846692183800,10.627183837890625,0.03226677735447883,-0.025460275677405296,0.013077362107485531
1710531846702257700,10.637257568359376,0.007243395256996154,-0.010153656680509448,0.010223507046326994
1710531846712331800,10.647331787109374,-0.012550854015350341,-0.014548055714555084,0.006883841229602694
1710531846722405600,10.657405517578125,0.011203531059622764,-0.016103614593483508,0.004199972440488637
1710531846732479700,10.667479736328126,0.01220014088153839,-0.013235146485082805,-0.016752105097472665
1710531846742553600,10.6775537109375,0.016463059023022652,0.014365100363083184,-0.025346586169861254
1710531846752627700,10.687627685546875,0.010721300500631331,0.021404059089161456,-0.00013235767539590597
1710531846762701800,10.697701904296874,0.053796472117304796,0.03857818899098783,-0.0047761648932471866
1710531846772775700,10.707775634765625,0.038973581516742704,0.041507520441152156,0.01746284718271345
1710531846782849800,10.717849853515625,0.018779519271850585,0.024061697458475827,0.0184812304450199
1710531846792923600,10.727923583984374,0.03196457953751087,0.008333163255080581,0.03532156181521714
1710531846802997500,10.73799755859375,0.034653380230069156,0.019798779316991567,0.04508548852577805
1710531846813071600,10.748071533203126,0.016847089904546735,0.010192527386173605,0.026029490400105715
1710531846823145700,10.758145751953125,0.010558218893408775,0.00548131748791784,0.021606742054410277
1710531846833219800,10.7682197265625,-0.023131284740567207,0.01200962327811867,-0.0011218071041628717
1710531846843293700,10.778293701171876,-0.03910217633247375,0.011621135417185723,-0.008169424060732126
1710531846853367800,10.788367919921875,0.0462543861746788,0.00208615862429142,-0.030982436632364985
1710531846863441700,10.798441650390625,0.08173486487865447,0.005389949410036206,-0.03288863557986915
1710531846873515500,10.808515625,-0.0083306059718132,0.0022462810894474388,-0.02260010047331452
1710531846883589600,10.818589599609375,-0.023024317234754562,0.030666283355280755,0.015325031436420977
1710531846893663700,10.828663818359376,-0.008861936369538307,0.038488063022121786,0.004429579945281148
1710531846903737900,10.83873779296875,0.007768880435824394,0.061017728607729076,0.011582447374612092
1710531846913811700,10.848811767578125,0.03445288922190666,0.06712152537554503,-0.0008204495374113321
1710531846923885800,10.8588857421875,0.02627250537574291,0.05106174992378801,-0.013333017368987201
1710531846933959700,10.868959716796875,-0.01381225225329399,0.022542525067180394,0.00386737948525697
1710531846944033500,10.879033447265625,0.06877250745296477,-0.023274200342595575,0.006058752049691975
1710531846954107600,10.889107666015626,0.07353285372257232,-0.055763205613009625,-0.0021926512060686945
1710531846964181800,10.899181640625,-0.009426584514975547,-0.07504314868766813,0.003435673537105322
1710531846974255900,10.909255859375,-0.05153437240421772,-0.05512147364336997,-0.003479804939776659
1710531846984329700,10.919329833984374,-0.025277649119496343,-0.03230813227817416,0.004956745624542236
1710531846994403600,10.929403564453125,0.025972061124444005,-0.016321677790954708,0.023593385826982557
1710531847004477700,10.939477783203126,0.03007891192138195,0.009723448569700121,0.024587986354902384
1710531847014551600,10.949551513671874,0.016098901885747908,0.02001585613377392,0.015025573565810918
1710531847024625700,10.959625732421875,0.03267477363348007,0.04597191597148776,-0.002201382501795888
1710531847034699800,10.96969970703125,0.048043607679009434,0.040200456430576736,-0.00749199972320348
1710531847044772600,10.979772705078124,0.050067806982994074,0.037849509390257295,-0.03285053205918521
1710531847054846700,10.9898466796875,0.023953122517466542,0.02944649576935917,-0.03238152630794793
1710531847064920600,10.999920654296876,0.016676409512758256,0.003958418769575655,-0.03994805257208645
1710531847074994700,11.00999462890625,0.03333937502205372,0.00943158948365599,-0.020321451484225688
1710531847085068800,11.02006884765625,0.042211248263716694,0.009531542726792394,-0.01480422243271023
1710531847095142700,11.030142578125,0.03463759813904762,0.004140972262248396,0.005596943224221468
1710531847105216800,11.040216796875,0.022753099077939987,0.012525244650058448,0.005068645033799111
1710531847115290600,11.05029052734375,0.01972819829881191,0.023935842589102686,0.006847235546261072
1710531847125364700,11.06036474609375,0.015548282265663146,0.021417612690478562,0.018928353158012032
1710531847135438600,11.0704384765625,0.015724807876348494,0.044099071304313835,0.02646470347959548
1710531847145512700,11.0805126953125,0.015609657064080237,0.024015702892281113,0.029467465492151675
1710531847155586800,11.0905869140625,0.024753917506337163,0.012906425987370311,0.021386925291270016
1710531847165660700,11.10066064453125,-0.0014086977541446686,0.005513758452795446,0.01811228753477335
1710531847175734800,11.11073486328125,-0.016371873608231544,-0.021257892084121703,-0.0186000345190987
1710531847185808600,11.12080859375,-0.022038813328742978,-0.025685499268025158,-0.028571028109081086
1710531847195883800,11.1308837890625,0.05540799896717071,-0.012207739666104316,-0.006500248739495873
1710531847205958000,11.1409580078125,-0.05501870738863945,0.004837576224282384,0.004768967967480421
1710531847216031700,11.15103173828125,-0.012823825737833977,0.028509909038990734,0.012740312172845006
1710531847226105900,11.16110595703125,0.0930319194406271,0.0319019626300782,0.023865188505686818
1710531847236179700,11.1711796875,-0.03222293821275234,0.01551927536688745,0.01098923072181642
1710531847246253800,11.18125390625,0.01566226403415203,0.020174517294205725,0.0037147462068125602
1710531847256328000,11.191327880859374,0.04018412635028362,0.015375884840823709,-0.008830993242003022
1710531847266401800,11.20140185546875,0.028167525342106817,0.022265059832669794,-0.01796991992201656
1710531847276476000,11.211475830078125,0.05172726462781429,0.022359167856909334,-0.029954116497933864
1710531847286549800,11.2215498046875,0.01930441992878914,0.03340630277842283,-0.022060842497460542
1710531847296623900,11.231623779296875,0.057961190581321716,0.02321348313130438,0.0003841770119965076
1710531847306697700,11.24169775390625,0.041993806120753284,0.0035446868695318697,0.004078026561252773
1710531847316771800,11.251771728515624,0.005261866050958633,-0.010986563840694725,0.014779928241670131
1710531847326846000,11.261845947265625,0.00025251345634460447,-0.02696136442273855,0.021107231567054987
1710531847336919800,11.271919921875,-0.012406477108597755,-0.02346223372798413,0.015723054310679434
1710531847346994000,11.281993896484375,0.0013800561815500258,-0.03286463364977389,0.015374167807772754
1710531847357067800,11.29206787109375,0.011249708288908004,-0.022552461939305067,0.0035087387733161446
1710531847367141600,11.3021416015625,0.005984335106611251,-0.009208375187031924,-0.003111154290474951
1710531847377215700,11.3122158203125,0.005792611926794052,0.01809285218194127,-0.006900865429639816
1710531847387289900,11.322289794921875,0.017225275567173955,0.04555303297229111,-0.012731325148791073
1710531847397364000,11.332364013671874,0.006488192975521087,0.05482585169766098,0.006991174061596393
1710531847407437800,11.342437744140625,0.03676818042695522,0.05793327966108918,0.012805047972127795
1710531847417512000,11.352511962890626,0.0414922863394022,0.042805926221236586,0.013291333651728927
1710531847427585800,11.362585693359375,0.0326736045897007,0.03394629140663892,0.014479191729426383
1710531847437659600,11.37265966796875,0.027166823866963386,0.023902853634953498,0.026330957564711568
1710531847447733800,11.382733642578126,0.01564648194313049,0.01536846871934831,0.03081186583843082
1710531847457808000,11.392807861328125,0.06007014555931091,0.011651201761886477,0.03251139976531267
1710531847467882000,11.402882080078125,0.04525543826520443,0.007434424317069351,0.019629633295163512
1710531847477955800,11.412955810546874,0.028843232646584508,-0.00694200115762651,-0.014718334247544406
1710531847488029700,11.42302978515625,0.016054478222131727,0.0016340674752369521,-0.02685341053623706
1710531847498103800,11.433103759765626,-0.002434533670544624,0.01561871715337038,-0.02400108984503895
1710531847508177700,11.443177734375,-0.009158873489499092,0.03896843041758984,-0.011747611341066657
1710531847518251800,11.453251708984375,-0.027709844702482223,0.038725671170279384,0.012784589705988765
1710531847528326000,11.463325927734376,-0.0034340661019086837,0.04519252909682691,0.002714519655704498
1710531847538400000,11.47339990234375,0.0012520458877086638,0.030842589770257473,0.0064978741193190215
1710531847548473900,11.483473876953125,0.012219430103898048,0.021441322359628975,0.015169256352819502
1710531847558547700,11.493547607421876,0.023345804274082182,0.005667085850983858,-0.009891352482512593
1710531847568621800,11.503621826171875,0.01428279237449169,-0.007278685766085982,-0.005990764847397804
1710531847578695700,11.51369580078125,0.004015665382146835,-0.007449256560020148,0.008809548595175147
1710531847588769800,11.523769775390624,0.0028419454276561737,-0.024364808590896427,-0.005598587192036211
1710531847598844000,11.533843994140625,0.02412321838736534,-0.01879292674269527,-0.012839827024564146
1710531847608917800,11.543917724609376,0.007221183425188064,-0.003966017554141581,-0.010495236659795045
1710531847618991900,11.553991943359375,-0.013900515058636664,0.003603467852063477,-0.01982782274838537
1710531847629065700,11.564065673828125,0.01061550203859806,0.007810491087846458,-0.022826420042477546
1710531847639139800,11.574139892578126,0.022696984976530075,0.016270714788697658,-0.0007134089663624763
1710531847649213700,11.584213623046875,-0.01592588340640068,0.02225099477469921,-0.019567491311766206
1710531847659287800,11.594287841796875,0.01640636039972305,0.024946261740662157,0.009047449004277586
1710531847669362000,11.60436181640625,0.034815877315402026,0.041137189291417596,0.026740232485346495
1710531847679435800,11.614435791015625,0.015233224967122077,0.021795140765979885,0.02637808464206755
1710531847689510000,11.624510009765626,0.029767946276068685,0.02624886877182871,0.0390268826065585
1710531847699583700,11.634583740234374,0.03474924181997776,0.018431180758215485,0.029962884326279162
1710531847709657900,11.644657958984375,0.042428105884790415,-0.0009880977218970656,0.020441936058737335
1710531847719731700,11.654731689453126,0.034821722534298896,0.01773337121978402,0.007106397939100861
1710531847729805800,11.664805908203125,0.029297406154870986,0.012228197932243346,-0.008566387489065528
1710531847739880000,11.6748798828125,0.02602759070396423,0.013387049111165105,-0.015321487772464752
1710531847749953800,11.684953857421876,0.02484334935545921,0.016022000724636016,-0.019673472436890004
1710531847760028000,11.69502783203125,0.013042436924576758,0.025377638895250857,-0.008760741017386317
1710531847770101800,11.705101806640625,-0.01721416965126991,0.018356252358481286,0.01045125138759613
1710531847780176000,11.71517578125,-0.036924832293391226,0.022698884672671556,0.0036091304078698155
1710531847790249700,11.725249755859375,0.09056056089103222,0.023138299003243445,-0.012014262920618057
1710531847800323800,11.73532373046875,0.036459552869200704,0.006783339997194707,-0.030946378938294945
1710531847810398000,11.74539794921875,-0.01962766053378582,0.01758592557311058,-0.011038403625786303
1710531847820471800,11.755471923828125,0.008168693408370018,0.04338420103322714,0.0044439007315784694
1710531847830546000,11.7655458984375,-0.007542085942625999,0.029024178704060613,-0.0011952741991728543
1710531847840619800,11.775619873046875,0.02727028424143791,0.025584194318018852,0.00009629998132586479
1710531847850694000,11.78569384765625,0.027534488135576247,0.03605659809149801,-0.0047393034815788266
1710531847860767700,11.795767822265624,0.002029460000991821,0.022905074769258498,-0.011198818351887166
1710531847870841900,11.805841796875,0.0010258359163999556,-0.0056764016686007375,-0.02223302072659135
1710531847880916000,11.815916015625,0.07972118696868419,-0.029906076105125246,0.0008516849258914589
1710531847890989800,11.82598974609375,0.06189385385513305,-0.054727104030922055,0.002439209845662117
1710531847901064000,11.83606396484375,-0.013116086682677268,-0.04498604673929512,-0.00007554945424199104
1710531847911137800,11.8461376953125,-0.03752688983976841,-0.021049510030448436,-0.007120207268744707
1710531847921211600,11.856211669921874,-0.030080665487051007,0.005660254251398146,0.03318959128782153
1710531847931285800,11.86628564453125,-0.0395312153995037,0.018964776178263126,0.03771864955220371
1710531847941359900,11.87635986328125,0.003415361401438713,0.04206446020416915,0.03421396589949727
1710531847951434000,11.88643408203125,0.0019505495458841324,0.05113185601793229,0.01880008713584393
1710531847961507800,11.8965078125,0.02636836696565151,0.042516734016314145,0.01352722476683557
1710531847971582000,11.90658203125,0.035061961030960084,0.04206219518184662,-0.0062605216994881625
1710531847981655800,11.91665576171875,0.053902855101227755,0.017900033023580907,-0.03203479522950947
1710531847991729700,11.926729736328125,0.06884323460161686,-0.001237140579521656,-0.04728431374430656
1710531848001803800,11.9368037109375,0.07509177360236645,-0.0030170827988535162,-0.04077051140349358
1710531848011878000,11.9468779296875,0.03136427555680275,0.0037547859562560913,-0.025213863168284296
1710531848021952000,11.956951904296876,0.006765256351232528,0.0027623773854225874,-0.017610402427241205
1710531848032025900,11.96702587890625,0.02301438036262989,0.018234050750918687,0.009839074306003748
1710531848042099700,11.977099609375,0.0033463878184556957,0.05587704125102609,0.03404200686607509
1710531848052173800,11.987173828125,-0.01150865148603916,0.02825706678908318,0.016945362647250294
1710531848062247000,11.997246826171875,-0.007921440649032592,0.031042459723912178,0.023232589690573513
1710531848072321800,12.00732177734375,-0.017945991057157516,0.03617755759004503,0.031151546121574936
1710531848082396000,12.01739599609375,-0.0011737199544906616,0.03633841070756316,0.027191008460149168
1710531848092468700,12.02746875,0.015610826107859611,0.022894480310007927,0.03404927685707807
1710531848102544000,12.0375439453125,0.034956747090816497,0.013330496618337928,0.008289872102625667
1710531848112616700,12.04761669921875,0.035136779832839964,-0.013053615905717015,0.001241049569658935
1710531848122690800,12.05769091796875,0.04545183762013912,-0.021216098769009113,0.015079020786099136
1710531848132765000,12.067764892578126,0.008792378264665604,-0.023106880951672792,0.00998301282133907
1710531848142838800,12.0778388671875,0.0746148037403822,-0.03590020195338875,0.006468392296507954
1710531848152913000,12.087912841796875,-0.06082768592834472,-0.01693232050258666,-0.009095160603523254
1710531848162986800,12.09798681640625,0.026031682357192037,0.001912263362109661,-0.011450235829688607
