time,seconds_elapsed,z,y,x
1713449200440532200,0.0105322265625,0.0202789306640625,-0.9560394287109375,-0.1115570068359375
1713449200450605300,0.020605224609375,0.0111541748046875,-0.95379638671875,-0.131317138671875
1713449200460679200,0.03067919921875,0.0013427734375,-0.9666595458984375,-0.153533935546875
1713449200470752300,0.040752197265625,0.0090484619140625,-0.977996826171875,-0.158355712890625
1713449200480825300,0.050825439453125,0.0168609619140625,-0.9937286376953125,-0.1315765380859375
1713449200490898400,0.0608984375,0.001800537109375,-0.97998046875,-0.1373138427734375
1713449200500972300,0.07097216796875,-0.0322418212890625,-0.951934814453125,-0.1611785888671875
1713449200511045000,0.081045166015625,-0.0733795166015625,-0.9212646484375,-0.1170654296875
1713449200521118500,0.091118408203125,-0.1005096435546875,-0.8580169677734375,-0.0260162353515625
1713449200531191300,0.10119140625,-0.124053955078125,-0.7596435546875,0.0428619384765625
1713449200541264400,0.111264404296875,-0.1662750244140625,-0.657135009765625,0.134979248046875
1713449200551338200,0.121338134765625,-0.2073516845703125,-0.618927001953125,0.17169189453125
1713449200561411300,0.131411376953125,-0.1092987060546875,-0.5854034423828125,0.3011932373046875
1713449200571484400,0.141484375,0.0078277587890625,-0.5555877685546875,0.3401947021484375
1713449200581557200,0.15155712890625,0.03741455078125,-0.8646697998046875,-0.24481201171875
1713449200591631400,0.16163134765625,-0.352020263671875,-1.365478515625,-1.08306884765625
1713449200601704400,0.171704345703125,-0.7321929931640625,-1.4806976318359375,-1.0400543212890625
1713449200611777300,0.18177734375,-0.6465301513671875,-1.3098602294921875,-0.5945281982421875
1713449200621850400,0.191850341796875,-0.40765380859375,-1.071563720703125,-0.1148223876953125
1713449200631923200,0.201923095703125,-0.268310546875,-0.9374542236328125,0.062164306640625
1713449200641998000,0.211998046875,-0.2571868896484375,-0.909698486328125,0.0392608642578125
1713449200652071000,0.22207080078125,-0.24267578125,-0.8709564208984375,0.041900634765625
1713449200662144000,0.23214404296875,-0.233001708984375,-0.82989501953125,-0.0051422119140625
1713449200672217000,0.242217041015625,-0.1857452392578125,-0.7718048095703125,-0.035888671875
1713449200682291000,0.252291015625,-0.1533203125,-0.7292327880859375,-0.0178070068359375
1713449200692364000,0.262364013671875,-0.1348419189453125,-0.6996612548828125,-0.1092681884765625
1713449200702436900,0.272436767578125,-0.102325439453125,-0.7009429931640625,-0.2020263671875
1713449200712510200,0.28251025390625,-0.286651611328125,-0.70684814453125,-0.257354736328125
1713449200722583000,0.2925830078125,-0.48260498046875,-0.7545928955078125,-0.33355712890625
1713449200732657000,0.302656982421875,-0.478729248046875,-0.8191070556640625,-0.341461181640625
1713449200742730000,0.31272998046875,-0.437744140625,-0.893096923828125,-0.341400146484375
1713449200752803000,0.322802978515625,-0.411773681640625,-0.90380859375,-0.4412994384765625
1713449200762876200,0.332876220703125,-0.403350830078125,-0.9037628173828125,-0.6061859130859375
1713449200772950000,0.342949951171875,-0.3985443115234375,-0.8857421875,-0.6934356689453125
1713449200783023000,0.353023193359375,-0.4142608642578125,-0.8602752685546875,-0.6208953857421875
1713449200793096200,0.36309619140625,-0.4568328857421875,-0.8080902099609375,-0.4797821044921875
1713449200803169000,0.3731689453125,-0.4732208251953125,-0.741790771484375,-0.3401641845703125
1713449200813241900,0.383241943359375,-0.4918975830078125,-0.708404541015625,-0.2349395751953125
1713449200823316200,0.393316162109375,-0.5136871337890625,-0.648651123046875,-0.14935302734375
1713449200833389000,0.40338916015625,-0.544891357421875,-0.590972900390625,-0.123382568359375
1713449200843462000,0.4134619140625,-0.6220703125,-0.5990142822265625,-0.2149200439453125
1713449200853535000,0.423534912109375,-0.7149200439453125,-0.6204071044921875,-0.336761474609375
1713449200863609000,0.433609130859375,-0.8179473876953125,-0.6029815673828125,-0.3887176513671875
1713449200873682000,0.443681884765625,-0.9228515625,-0.5634765625,-0.3666534423828125
1713449200883755000,0.453755126953125,-1.0193328857421875,-0.51763916015625,-0.3097381591796875
1713449200893827800,0.463827880859375,-1.048583984375,-0.506866455078125,-0.26171875
1713449200903901200,0.473901123046875,-0.97930908203125,-0.567626953125,-0.26190185546875
1713449200913975000,0.48397509765625,-0.8894195556640625,-0.596405029296875,-0.313690185546875
1713449200924048000,0.4940478515625,-0.784515380859375,-0.5560760498046875,-0.3947296142578125
1713449200934121200,0.504121337890625,-0.664764404296875,-0.5622406005859375,-0.4875640869140625
1713449200944194000,0.514194091796875,-0.6008148193359375,-0.568145751953125,-0.587005615234375
1713449200954268000,0.524267822265625,-0.57855224609375,-0.5724945068359375,-0.6420440673828125
1713449200964341000,0.534341064453125,-0.547088623046875,-0.6208343505859375,-0.6085968017578125
1713449200974414000,0.5444140625,-0.5177459716796875,-0.63427734375,-0.602294921875
1713449200984487200,0.554487060546875,-0.531829833984375,-0.5743560791015625,-0.65655517578125
1713449200994560000,0.56456005859375,-0.265228271484375,-0.45361328125,-0.7515106201171875
1713449201004633900,0.5746337890625,-0.3300933837890625,-0.5045318603515625,-0.889373779296875
1713449201014707200,0.584707275390625,-0.5625,-0.6243133544921875,-0.76336669921875
1713449201024780000,0.594780029296875,-0.4950714111328125,-0.5903778076171875,-0.5797271728515625
1713449201034852900,0.604852783203125,-0.518585205078125,-0.577484130859375,-0.5738372802734375
1713449201044927200,0.61492724609375,-0.436737060546875,-0.586578369140625,-0.601806640625
1713449201055000000,0.625,-0.3973846435546875,-0.585845947265625,-0.5156402587890625
1713449201065073000,0.635072998046875,-0.46661376953125,-0.593109130859375,-0.374969482421875
1713449201075146000,0.64514599609375,-0.581573486328125,-0.646636962890625,-0.511444091796875
1713449201085218800,0.65521875,-0.6140289306640625,-0.766387939453125,-0.4456329345703125
1713449201095293000,0.66529296875,-0.4879302978515625,-1.0427093505859375,-0.2253265380859375
1713449201105366000,0.675365966796875,-0.734344482421875,-1.1600494384765625,-0.2700347900390625
1713449201115438800,0.68543896484375,-0.9932708740234375,-1.077392578125,-0.4504547119140625
1713449201125512200,0.69551220703125,-0.9090728759765625,-1.091705322265625,-0.5345458984375
1713449201135586000,0.7055859375,-0.9221038818359375,-1.14306640625,-0.6509552001953125
1713449201145659000,0.715658935546875,-0.928802490234375,-1.1114501953125,-0.7766265869140625
1713449201155732000,0.72573193359375,-0.9670867919921875,-1.0541534423828125,-0.8289794921875
1713449201165805000,0.73580517578125,-0.9427337646484375,-0.960723876953125,-0.787628173828125
1713449201175878100,0.745878173828125,-0.8099517822265625,-0.8892669677734375,-0.6730499267578125
1713449201185952000,0.755951904296875,-0.693939208984375,-0.86767578125,-0.5371856689453125
1713449201196025000,0.766025146484375,-0.5652923583984375,-0.8797607421875,-0.4037933349609375
1713449201206098200,0.77609814453125,-0.3798828125,-0.85223388671875,-0.3455963134765625
1713449201216171000,0.7861708984375,-0.238494873046875,-0.781585693359375,-0.3618621826171875
1713449201226244900,0.796244873046875,-0.1866912841796875,-0.7582244873046875,-0.412933349609375
1713449201236318200,0.806318115234375,-0.1694488525390625,-0.68572998046875,-0.408233642578125
1713449201246391000,0.81639111328125,-0.1625518798828125,-0.6804046630859375,-0.3970947265625
1713449201256464100,0.826464111328125,-0.163970947265625,-0.657379150390625,-0.3152618408203125
1713449201266537000,0.836536865234375,-0.21636962890625,-0.76318359375,-0.2607879638671875
1713449201276611000,0.846611083984375,-0.0904541015625,-0.86932373046875,-0.1656036376953125
1713449201286684200,0.85668408203125,-0.0071868896484375,-0.6972808837890625,-0.2190704345703125
1713449201296757000,0.866757080078125,-0.180084228515625,-0.3311767578125,-0.244110107421875
1713449201306829800,0.876829833984375,-0.3199462890625,-0.0061798095703125,-0.1673126220703125
1713449201316904200,0.886904296875,-0.7339324951171875,0.150482177734375,-0.20257568359375
1713449201326977000,0.89697705078125,-1.2553253173828125,0.09259033203125,-0.142913818359375
1713449201337049900,0.9070498046875,-1.3892822265625,0.1054229736328125,0.08026123046875
1713449201347123000,0.917123046875,-1.2928924560546875,0.2156219482421875,0.3012237548828125
1713449201357196000,0.927196044921875,-1.043426513671875,0.3197784423828125,0.4725494384765625
1713449201367270000,0.937269775390625,-0.872711181640625,0.388336181640625,0.5960845947265625
1713449201377343000,0.947343017578125,-0.8850555419921875,0.32763671875,0.5706634521484375
1713449201387416000,0.957416015625,-1.0217437744140625,0.166351318359375,0.5523681640625
1713449201397489200,0.9674892578125,-1.139404296875,-0.0139312744140625,0.6111907958984375
1713449201407562000,0.97756201171875,-1.25079345703125,-0.232269287109375,0.7287750244140625
1713449201417635800,0.9876357421875,-1.3028564453125,-0.372711181640625,0.8636932373046875
1713449201427709200,0.997709228515625,-1.3770294189453125,-0.32977294921875,0.9291229248046875
1713449201437782000,1.007781982421875,-1.5108489990234375,-0.292449951171875,0.8708648681640625
1713449201447855000,1.017855224609375,-1.5815277099609375,-0.2296600341796875,0.8357086181640625
1713449201457929200,1.02792919921875,-1.5704498291015625,-0.1938018798828125,0.783905029296875
1713449201468002000,1.038001953125,-1.5303802490234375,-0.187255859375,0.683502197265625
1713449201478075100,1.0480751953125,-1.5263824462890625,-0.2137603759765625,0.5561065673828125
1713449201488148000,1.05814794921875,-1.49896240234375,-0.21484375,0.4305419921875
1713449201498220800,1.068220703125,-1.472259521484375,-0.2281341552734375,0.240753173828125
1713449201508295200,1.078295166015625,-1.4167633056640625,-0.2562103271484375,0.0457763671875
1713449201518368000,1.088367919921875,-1.4134979248046875,-0.316192626953125,-0.1551513671875
1713449201528440800,1.09844091796875,-1.3442840576171875,-0.3447723388671875,-0.3228302001953125
1713449201538514000,1.108513916015625,-1.2875518798828125,-0.3861846923828125,-0.4384002685546875
1713449201548588000,1.118588134765625,-0.99273681640625,-0.63226318359375,-0.1194305419921875
1713449201558660900,1.128660888671875,-0.3470916748046875,-1.17523193359375,-0.112579345703125
1713449201568734000,1.13873388671875,-0.5220794677734375,-0.353607177734375,-1.7979278564453125
1713449201578807000,1.14880712890625,-0.2365264892578125,0.7778472900390625,-1.400848388671875
1713449201588880100,1.158880126953125,-0.31707763671875,1.0532073974609375,0.097991943359375
1713449201598954000,1.1689541015625,-0.8150634765625,1.9100189208984375,0.573944091796875
1713449201609026800,1.17902685546875,-0.616912841796875,2.1799774169921875,0.4362945556640625
1713449201619100200,1.18910009765625,-5.4221954345703125,0.7893218994140625,-0.9179229736328125
1713449201629173000,1.199173095703125,-9.285308837890625,-0.2789154052734375,-1.208831787109375
1713449201639246000,1.20924609375,-2.810546875,0.5719757080078125,0.761871337890625
1713449201649319000,1.21931884765625,0.5793914794921875,-0.4862518310546875,0.7701873779296875
1713449201659392000,1.22939208984375,0.8141937255859375,-0.6662750244140625,0.1780853271484375
1713449201669465000,1.239465087890625,-0.82110595703125,-0.238494873046875,0.1224822998046875
1713449201679538000,1.249537841796875,-3.2798309326171875,-0.261474609375,-0.492950439453125
1713449201689612000,1.259612060546875,-2.7235260009765625,0.18536376953125,-0.22283935546875
1713449201699685000,1.26968505859375,-0.8023223876953125,0.2903289794921875,0.180267333984375
1713449201709758000,1.279758056640625,-0.2105560302734375,0.014312744140625,0.0087890625
1713449201719831000,1.2898310546875,-0.2394866943359375,-0.2573699951171875,-0.2390899658203125
1713449201729905200,1.2999052734375,-0.4978790283203125,-0.386627197265625,-0.3566436767578125
1713449201739978000,1.30997802734375,-0.8455963134765625,-0.39044189453125,-0.3135833740234375
1713449201750051000,1.320051025390625,-0.894744873046875,-0.305877685546875,-0.01971435546875
1713449201760124000,1.3301240234375,-0.6970977783203125,-0.2493896484375,0.325958251953125
1713449201770197000,1.340197021484375,-0.4788665771484375,-0.148040771484375,0.49420166015625
1713449201780271000,1.35027099609375,-0.4221649169921875,-0.10003662109375,0.50860595703125
1713449201790344000,1.360343994140625,-0.94744873046875,-0.0583648681640625,0.397796630859375
1713449201800417000,1.3704169921875,-1.447845458984375,-0.0359954833984375,0.33160400390625
1713449201810490000,1.380489990234375,-1.31671142578125,0.0055084228515625,0.3643798828125
1713449201820563200,1.390563232421875,-1.1080322265625,0.043853759765625,0.350189208984375
1713449201830637000,1.400636962890625,-1.0136260986328125,-0.007293701171875,0.289520263671875
1713449201840710000,1.4107099609375,-0.9575042724609375,-0.0492095947265625,0.2628631591796875
1713449201850783200,1.420783203125,-0.91802978515625,-0.028778076171875,0.245361328125
1713449201860856000,1.43085595703125,-0.9514617919921875,-0.021942138671875,0.1769866943359375
1713449201870930000,1.440929931640625,-0.9885101318359375,-0.070098876953125,0.090301513671875
1713449201881003000,1.4510029296875,-1.0121917724609375,-0.1345977783203125,0.02471923828125
1713449201891076000,1.461076171875,-1.0006866455078125,-0.18597412109375,-0.010406494140625
1713449201901149000,1.47114892578125,-0.9993133544921875,-0.155609130859375,-0.022003173828125
1713449201911222000,1.481221923828125,-1.0028839111328125,-0.0765533447265625,-0.0431365966796875
1713449201921296100,1.491296142578125,-1.0091705322265625,-0.03753662109375,-0.07086181640625
1713449201931369000,1.501368896484375,-0.9640045166015625,-0.03759765625,-0.059814453125
1713449201941442000,1.511442138671875,-0.882415771484375,-0.039337158203125,-0.04803466796875
1713449201951515000,1.521514892578125,-0.830108642578125,-0.0449371337890625,-0.0208892822265625
1713449201961589000,1.531589111328125,-0.8412933349609375,-0.0141754150390625,0.0128021240234375
1713449201971662000,1.541662109375,-0.8973388671875,-0.05645751953125,0.1115875244140625
1713449201981735000,1.55173486328125,-0.9974365234375,0.064056396484375,0.146209716796875
1713449201991808000,1.56180810546875,-1.1924896240234375,0.0474700927734375,0.44281005859375
1713449202001881000,1.571881103515625,-1.3366241455078125,-0.216278076171875,0.7094573974609375
1713449202011955000,1.581954833984375,-1.33990478515625,-0.09576416015625,0.23468017578125
1713449202022028000,1.592028076171875,-1.1718902587890625,0.0722198486328125,-0.1481781005859375
1713449202032100900,1.602100830078125,-1.0167999267578125,0.13641357421875,-0.0359344482421875
1713449202042174200,1.61217431640625,-0.9063262939453125,0.023101806640625,-0.0017852783203125
1713449202052247000,1.6222470703125,-1.1410064697265625,-0.253936767578125,-0.1119842529296875
1713449202062321000,1.63232080078125,-1.269561767578125,-0.194244384765625,-0.0782470703125
1713449202072394200,1.642394287109375,-1.173583984375,-0.17095947265625,-0.011962890625
1713449202082467000,1.652467041015625,-1.022613525390625,-0.238983154296875,0.03912353515625
1713449202092540000,1.662539794921875,-0.9224090576171875,-0.376861572265625,0.039093017578125
1713449202102614000,1.672614013671875,-0.9559173583984375,-0.5634002685546875,0.0863800048828125
1713449202112687000,1.68268701171875,-1.0681915283203125,-0.7420501708984375,0.1938629150390625
1713449202122760000,1.692760009765625,-1.2200469970703125,-0.7334442138671875,0.3790740966796875
1713449202132833000,1.7028330078125,-1.3253326416015625,-0.5029144287109375,0.5515289306640625
1713449202142905900,1.71290576171875,-1.2976226806640625,-0.1708526611328125,0.6684112548828125
1713449202152980000,1.72297998046875,-1.1655120849609375,0.1538848876953125,0.72900390625
1713449202163053000,1.733052978515625,-0.9947052001953125,0.4090118408203125,0.705535888671875
1713449202173126000,1.7431259765625,-0.9524993896484375,0.5703582763671875,0.557647705078125
1713449202183199000,1.753198974609375,-0.9619293212890625,0.5960540771484375,0.337249755859375
1713449202193273000,1.763273193359375,-0.8797149658203125,0.613739013671875,0.06646728515625
1713449202203346000,1.773345947265625,-0.718536376953125,0.555572509765625,-0.1786651611328125
1713449202213419000,1.7834189453125,-0.5052947998046875,0.463714599609375,-0.37945556640625
1713449202223491800,1.793491943359375,-0.3712921142578125,0.3968505859375,-0.528076171875
1713449202233565200,1.803565185546875,-0.3579559326171875,0.315155029296875,-0.6929779052734375
1713449202243639000,1.81363916015625,-0.4802093505859375,0.1848907470703125,-1.087066650390625
1713449202253712000,1.8237119140625,-0.57904052734375,0.1094818115234375,-1.5515289306640625
1713449202263785200,1.83378515625,-0.5723876953125,0.1857147216796875,-1.688232421875
1713449202273858000,1.843858154296875,-0.9082489013671875,0.324188232421875,-1.263671875
1713449202283931100,1.85393115234375,-1.6661376953125,0.4059295654296875,-0.3562774658203125
1713449202294005000,1.8640048828125,-1.8543548583984375,0.3330078125,0.1956634521484375
1713449202304078000,1.874078125,-1.36749267578125,0.233306884765625,0.1914825439453125
1713449202314151200,1.884151123046875,-1.073944091796875,0.2205352783203125,0.27191162109375
1713449202324224000,1.89422412109375,-1.19427490234375,0.150421142578125,0.5062713623046875
1713449202334298000,1.904298095703125,-1.5128631591796875,0.042724609375,0.6163330078125
1713449202344371200,1.91437109375,-1.624542236328125,-0.011322021484375,0.5033416748046875
1713449202354444000,1.924444091796875,-1.42388916015625,0.059661865234375,0.286102294921875
1713449202364516900,1.934516845703125,-1.2146453857421875,0.2108154296875,0.1225128173828125
1713449202374590000,1.94458984375,-1.111053466796875,0.3152923583984375,0.061737060546875
1713449202384664000,1.9546640625,-0.964691162109375,0.0914459228515625,0.0044708251953125
1713449202394737000,1.96473681640625,-0.7029571533203125,-0.594146728515625,-0.195587158203125
1713449202404810000,1.97481005859375,-0.4178619384765625,-1.088653564453125,-0.368560791015625
1713449202414882800,1.9848828125,-0.38983154296875,-1.0416717529296875,-0.198272705078125
1713449202424957000,1.99495703125,-0.802734375,-0.7542724609375,0.0716400146484375
1713449202435030000,2.005030029296875,-1.3340606689453125,-0.461578369140625,0.0923614501953125
1713449202445102800,2.015102783203125,-1.43768310546875,-0.25128173828125,-0.0694427490234375
1713449202455176200,2.02517626953125,-1.146942138671875,-0.146270751953125,0.0132293701171875
1713449202465249000,2.0352490234375,-0.930206298828125,-0.07586669921875,0.129730224609375
1713449202475323000,2.045322998046875,-0.9114837646484375,0.039031982421875,0.01068115234375
1713449202485396000,2.05539599609375,-0.871337890625,0.0883636474609375,-0.22735595703125
1713449202495469000,2.065468994140625,-1.0782470703125,0.0186767578125,-0.312774658203125
1713449202505542100,2.075542236328125,-1.419219970703125,-0.0464324951171875,-0.147979736328125
1713449202515616000,2.085615966796875,-1.3505859375,-0.1123046875,-0.09539794921875
1713449202525689000,2.095689208984375,-0.990875244140625,-0.1726531982421875,-0.0596160888671875
1713449202535762200,2.10576220703125,-0.7893524169921875,-0.16351318359375,-0.0449981689453125
1713449202545835000,2.1158349609375,-0.794769287109375,-0.09771728515625,-0.1110076904296875
1713449202555907800,2.125907958984375,-0.910736083984375,-0.0244598388671875,-0.2160186767578125
1713449202565982200,2.135982177734375,-0.973602294921875,0.0261383056640625,-0.259857177734375
1713449202576055000,2.146054931640625,-1.024078369140625,0.0265350341796875,-0.19189453125
1713449202586128000,2.1561279296875,-1.06439208984375,-0.04266357421875,-0.0908203125
1713449202596201000,2.166200927734375,-1.04998779296875,-0.0837860107421875,-0.060089111328125
1713449202606274000,2.176274169921875,-1.0125274658203125,-0.102142333984375,-0.0726165771484375
1713449202616348000,2.186347900390625,-0.9757843017578125,-0.1372833251953125,-0.0465087890625
1713449202626421000,2.1964208984375,-0.958526611328125,-0.12646484375,-0.02801513671875
1713449202636494600,2.20649462890625,-0.9745025634765625,-0.06573486328125,-0.039947509765625
1713449202646567700,2.216567626953125,-1.007598876953125,0.0141754150390625,-0.1062774658203125
1713449202656641800,2.226641845703125,-1.0422210693359375,0.04742431640625,-0.157958984375
1713449202666714600,2.236714599609375,-1.036376953125,0.057861328125,-0.206787109375
1713449202676787700,2.24678759765625,-1.002593994140625,0.05181884765625,-0.23309326171875
1713449202686860500,2.256860595703125,-0.969696044921875,0.037261962890625,-0.235504150390625
1713449202696933600,2.26693359375,-0.963775634765625,0.0061798095703125,-0.2133636474609375
1713449202707007700,2.2770078125,-0.981231689453125,-0.02532958984375,-0.131378173828125
1713449202717080600,2.28708056640625,-1.0093536376953125,-0.01983642578125,-0.0908660888671875
1713449202727153700,2.297153564453125,-1.0263671875,0.0122528076171875,-0.06597900390625
1713449202737226800,2.307226806640625,-0.9967803955078125,0.0223236083984375,-0.0369415283203125
1713449202747300600,2.317300537109375,-0.9688568115234375,0.004150390625,-0.01995849609375
1713449202757373700,2.327373779296875,-1.01202392578125,-0.0507049560546875,-0.03485107421875
1713449202767446800,2.33744677734375,-1.07293701171875,-0.0901336669921875,-0.1448516845703125
1713449202777519600,2.34751953125,-1.0868988037109375,-0.120941162109375,-0.2737884521484375
1713449202787592700,2.3575927734375,-1.02490234375,-0.1762847900390625,-0.306488037109375
1713449202797666600,2.36766650390625,-0.8742828369140625,-0.215484619140625,-0.2522125244140625
1713449202807739600,2.37773974609375,-0.73834228515625,-0.185455322265625,-0.1903533935546875
1713449202817812700,2.387812744140625,-0.7378082275390625,-0.1126861572265625,-0.1017608642578125
1713449202827885600,2.397885498046875,-0.864044189453125,-0.06036376953125,-0.0999755859375
1713449202837959400,2.40795947265625,-1.05401611328125,-0.0371246337890625,-0.1798553466796875
1713449202848032800,2.41803271484375,-1.2138214111328125,-0.0397796630859375,-0.2019195556640625
1713449202858105600,2.428105712890625,-1.226318359375,-0.08551025390625,-0.14398193359375
1713449202868178700,2.4381787109375,-1.110687255859375,-0.1020355224609375,-0.1374359130859375
1713449202878251500,2.44825146484375,-0.99951171875,-0.0953369140625,-0.187744140625
1713449202888325600,2.45832568359375,-0.9057769775390625,-0.0931396484375,-0.2052459716796875
1713449202898398700,2.468398681640625,-0.8480682373046875,-0.1154022216796875,-0.206085205078125
1713449202908471600,2.478471435546875,-0.7962799072265625,-0.1688690185546875,-0.1304779052734375
1713449202918544600,2.488544677734375,-0.8057098388671875,-0.1979522705078125,-0.062591552734375
1713449202928617700,2.49861767578125,-0.9004669189453125,-0.1473541259765625,-0.12664794921875
1713449202938691600,2.508691650390625,-1.0951385498046875,-0.0455474853515625,-0.2755584716796875
1713449202948764700,2.5187646484375,-1.2236175537109375,0.004058837890625,-0.3365020751953125
1713449202958837800,2.528837646484375,-1.1657257080078125,-0.0116424560546875,-0.2901611328125
1713449202968910600,2.53891064453125,-1.0529937744140625,-0.0885467529296875,-0.2144317626953125
1713449202978984700,2.548984619140625,-1.0217742919921875,-0.13494873046875,-0.18463134765625
1713449202989057500,2.5590576171875,-0.98504638671875,-0.134521484375,-0.1853790283203125
1713449202999130600,2.569130615234375,-0.87890625,-0.12579345703125,-0.20477294921875
1713449203009203700,2.57920361328125,-0.7064361572265625,-0.1046142578125,-0.2501678466796875
1713449203019276500,2.589276611328125,-0.59033203125,-0.061431884765625,-0.3285675048828125
1713449203029350700,2.5993505859375,-0.5480194091796875,-0.04327392578125,-0.4137725830078125
1713449203039423700,2.609423828125,-0.559906005859375,-0.08953857421875,-0.435333251953125
1713449203049496600,2.61949658203125,-0.6191253662109375,-0.1508636474609375,-0.3397674560546875
1713449203059569700,2.629569580078125,-0.66693115234375,-0.1967010498046875,-0.235687255859375
1713449203069643800,2.639643798828125,-0.75408935546875,-0.1976318359375,-0.2057952880859375
1713449203079716600,2.649716552734375,-0.924163818359375,-0.17730712890625,-0.207855224609375
1713449203089789700,2.659789794921875,-1.0460052490234375,-0.1632843017578125,-0.236480712890625
1713449203099862500,2.669862548828125,-1.0219573974609375,-0.1718292236328125,-0.2489013671875
1713449203109935600,2.679935546875,-0.9237823486328125,-0.1806793212890625,-0.25457763671875
1713449203120009700,2.690009765625,-0.9526519775390625,-0.1533050537109375,-0.3052825927734375
1713449203130082600,2.70008251953125,-1.0389862060546875,-0.1096954345703125,-0.3264312744140625
1713449203140155600,2.71015576171875,-1.079742431640625,-0.1033477783203125,-0.305938720703125
1713449203150228700,2.720228759765625,-1.0876007080078125,-0.1112060546875,-0.2903594970703125
1713449203160302600,2.730302490234375,-1.0755615234375,-0.0989227294921875,-0.30010986328125
1713449203170375700,2.740375732421875,-1.0678253173828125,-0.0883636474609375,-0.3146514892578125
1713449203180448500,2.750448486328125,-1.045013427734375,-0.082244873046875,-0.3007354736328125
1713449203190521600,2.760521484375,-1.016021728515625,-0.0858306884765625,-0.3017730712890625
1713449203200594700,2.7705947265625,-1.0097503662109375,-0.080718994140625,-0.3144683837890625
1713449203210668500,2.78066845703125,-1.0117340087890625,-0.0714111328125,-0.311126708984375
1713449203220741600,2.79074169921875,-1.0121917724609375,-0.065093994140625,-0.3098602294921875
1713449203230814700,2.800814697265625,-1.0098419189453125,-0.0623931884765625,-0.3122711181640625
1713449203240887600,2.810887451171875,-1.007354736328125,-0.065155029296875,-0.307525634765625
1713449203250960600,2.820960693359375,-1.0055999755859375,-0.065277099609375,-0.3083343505859375
1713449203261034800,2.83103466796875,-1.0096435546875,-0.066009521484375,-0.3111724853515625
1713449203271107600,2.841107666015625,-1.008026123046875,-0.0556793212890625,-0.31610107421875
1713449203281180700,2.8511806640625,-0.9971466064453125,-0.05133056640625,-0.3183746337890625
1713449203291253500,2.86125341796875,-0.994232177734375,-0.045684814453125,-0.31365966796875
1713449203301327600,2.87132763671875,-0.970458984375,-0.0457611083984375,-0.30413818359375
1713449203311400700,2.881400634765625,-0.9403839111328125,-0.0522308349609375,-0.2985992431640625
1713449203321473500,2.8914736328125,-0.9337005615234375,-0.0553436279296875,-0.29193115234375
1713449203331546600,2.901546630859375,-0.9243927001953125,-0.0560455322265625,-0.2855682373046875
1713449203341619700,2.91161962890625,-0.927001953125,-0.0564422607421875,-0.2806396484375
1713449203351693600,2.921693603515625,-0.937103271484375,-0.0635833740234375,-0.2888031005859375
1713449203361766700,2.9317666015625,-0.914794921875,-0.058380126953125,-0.2886199951171875
1713449203371839500,2.941839599609375,-0.911407470703125,-0.053070068359375,-0.278900146484375
1713449203381912800,2.951912841796875,-0.923248291015625,-0.0504608154296875,-0.2805023193359375
1713449203391986700,2.961986572265625,-0.94061279296875,-0.0499725341796875,-0.2862548828125
1713449203402059500,2.9720595703125,-0.9613037109375,-0.0471954345703125,-0.2925872802734375
1713449203412132900,2.9821328125,-0.9672698974609375,-0.0382843017578125,-0.30084228515625
1713449203422205700,2.992205810546875,-0.9646148681640625,-0.0301666259765625,-0.2964935302734375
1713449203432278500,3.002278564453125,-0.9544830322265625,-0.029876708984375,-0.2959442138671875
1713449203442352600,3.0123525390625,-0.941070556640625,-0.0330047607421875,-0.292022705078125
1713449203452425700,3.02242578125,-0.9362640380859375,-0.03546142578125,-0.277435302734375
1713449203462498600,3.03249853515625,-0.9342803955078125,-0.036102294921875,-0.274627685546875
1713449203472571600,3.042571533203125,-0.940948486328125,-0.036041259765625,-0.2822723388671875
1713449203482644500,3.05264453125,-0.95257568359375,-0.032867431640625,-0.2939910888671875
1713449203492718600,3.062718505859375,-0.9703826904296875,-0.028289794921875,-0.3023223876953125
1713449203502791700,3.072791748046875,-1.0011138916015625,-0.0270843505859375,-0.29107666015625
1713449203512864500,3.082864501953125,-1.0361175537109375,-0.02081298828125,-0.30816650390625
1713449203522937600,3.0929375,-1.03472900390625,-0.0254364013671875,-0.32672119140625
1713449203533011700,3.10301171875,-1.0074310302734375,-0.0441741943359375,-0.3153228759765625
1713449203543084500,3.11308447265625,-0.980224609375,-0.036468505859375,-0.3126068115234375
1713449203553157600,3.12315771484375,-0.964019775390625,-0.021514892578125,-0.3087310791015625
1713449203563230700,3.133230712890625,-0.95574951171875,-0.021514892578125,-0.308074951171875
1713449203573303800,3.1433037109375,-0.9542388916015625,-0.0188751220703125,-0.3118133544921875
1713449203583377700,3.153377685546875,-0.956512451171875,-0.0172576904296875,-0.3104095458984375
1713449203593450500,3.163450439453125,-0.955780029296875,-0.0182342529296875,-0.302581787109375
1713449203603523800,3.17352392578125,-0.9451751708984375,-0.0251312255859375,-0.294830322265625
1713449203613596700,3.1835966796875,-0.9406280517578125,-0.029052734375,-0.292205810546875
1713449203623670500,3.19367041015625,-0.9416961669921875,-0.025421142578125,-0.298675537109375
1713449203633743600,3.20374365234375,-0.9484710693359375,-0.031097412109375,-0.2939605712890625
1713449203643816700,3.213816650390625,-0.949493408203125,-0.0139923095703125,-0.3197784423828125
1713449203653889500,3.2238896484375,-0.9681396484375,-0.007843017578125,-0.34136962890625
1713449203663963000,3.233962890625,-0.974639892578125,-0.0146331787109375,-0.3360595703125
1713449203674036700,3.24403662109375,-0.9803009033203125,-0.021331787109375,-0.3159027099609375
1713449203684109600,3.254109619140625,-0.98272705078125,-0.026153564453125,-0.3109588623046875
1713449203694183000,3.264182861328125,-0.987335205078125,-0.0321807861328125,-0.3033294677734375
1713449203704255700,3.274255859375,-0.984375,-0.028594970703125,-0.3043975830078125
1713449203714328800,3.284328857421875,-0.975189208984375,-0.050384521484375,-0.2980499267578125
1713449203724402700,3.294402587890625,-0.9777679443359375,-0.0458526611328125,-0.2940673828125
1713449203734475800,3.304475830078125,-1.0077972412109375,0.0016326904296875,-0.34222412109375
1713449203744548900,3.314548828125,-1.005859375,0.013153076171875,-0.3628082275390625
1713449203754621700,3.32462158203125,-0.96240234375,-0.0271453857421875,-0.3041534423828125
1713449203764695800,3.33469580078125,-0.9328460693359375,-0.0622711181640625,-0.26513671875
1713449203774769000,3.344768798828125,-0.928192138671875,-0.051239013671875,-0.285064697265625
1713449203784841700,3.354841796875,-0.9360504150390625,-0.035369873046875,-0.2990264892578125
1713449203794914800,3.364914794921875,-0.9537353515625,-0.027191162109375,-0.2988128662109375
1713449203804987600,3.374987548828125,-0.959136962890625,-0.028472900390625,-0.3017730712890625
1713449203815061800,3.385061767578125,-0.9561309814453125,-0.0345001220703125,-0.2990875244140625
1713449203825134800,3.395134765625,-0.950775146484375,-0.0298309326171875,-0.2843780517578125
1713449203835207700,3.405207763671875,-0.949432373046875,-0.0304718017578125,-0.273406982421875
1713449203845280800,3.41528076171875,-0.9429779052734375,-0.0467681884765625,-0.2796630859375
1713449203855355000,3.42535498046875,-0.949432373046875,-0.0321044921875,-0.2784423828125
1713449203865427700,3.435427734375,-0.9645233154296875,-0.02557373046875,-0.273162841796875
1713449203875500800,3.445500732421875,-0.9795989990234375,-0.0171966552734375,-0.2677001953125
1713449203885574000,3.455573974609375,-1.020263671875,-0.0114288330078125,-0.2590484619140625
1713449203895646700,3.465646728515625,-1.0682830810546875,-0.0164642333984375,-0.277740478515625
1713449203905720800,3.475720947265625,-1.0474700927734375,-0.03582763671875,-0.31488037109375
1713449203915793700,3.485793701171875,-1.047393798828125,-0.009552001953125,-0.3144683837890625
1713449203925866800,3.49586669921875,-1.0617828369140625,-0.0102996826171875,-0.306304931640625
1713449203935939800,3.50593994140625,-1.07135009765625,-0.0074462890625,-0.3166961669921875
1713449203946012700,3.5160126953125,-1.048126220703125,-0.04278564453125,-0.315826416015625
1713449203956086800,3.526086669921875,-1.0327606201171875,-0.047698974609375,-0.304779052734375
1713449203966160000,3.536159912109375,-1.0113677978515625,-0.0369873046875,-0.2926788330078125
1713449203976232700,3.546232666015625,-1.001617431640625,-0.05712890625,-0.2779083251953125
1713449203986305800,3.556305908203125,-0.9903106689453125,-0.085540771484375,-0.2772369384765625
1713449203996380000,3.5663798828125,-0.984954833984375,-0.0885162353515625,-0.2590789794921875
1713449204006452700,3.57645263671875,-0.980377197265625,-0.0936431884765625,-0.2434844970703125
1713449204016525800,3.58652587890625,-0.9713592529296875,-0.0998687744140625,-0.2266082763671875
1713449204026598700,3.5965986328125,-0.9696502685546875,-0.087890625,-0.1776123046875
1713449204036672800,3.6066728515625,-0.9595947265625,-0.07598876953125,-0.131744384765625
1713449204046745900,3.616745849609375,-0.9219970703125,-0.1198272705078125,-0.08477783203125
1713449204056818700,3.626818603515625,-0.902557373046875,-0.14752197265625,-0.0206756591796875
1713449204066891800,3.636891845703125,-0.9144439697265625,-0.1719818115234375,0.0419158935546875
1713449204076964900,3.64696484375,-0.9067840576171875,-0.1729736328125,0.01800537109375
1713449204087038700,3.657038818359375,-0.906341552734375,-0.1204833984375,-0.1011962890625
1713449204097111800,3.66711181640625,-0.8920440673828125,-0.176849365234375,-0.261016845703125
1713449204107184600,3.6771845703125,-0.842041015625,-0.2485504150390625,-0.3440093994140625
1713449204117257700,3.6872578125,-0.77972412109375,-0.1165771484375,-0.106170654296875
1713449204127331800,3.697331787109375,-0.78668212890625,-0.0748443603515625,-0.02203369140625
1713449204137404700,3.70740478515625,-0.86328125,-0.113494873046875,-0.0284423828125
1713449204147477800,3.717477783203125,-1.093780517578125,-0.2061004638671875,-0.083251953125
1713449204157550800,3.72755078125,-1.0958251953125,-0.1647186279296875,-0.32928466796875
1713449204167623700,3.737623779296875,-1.1110076904296875,-0.0926666259765625,-0.2515411376953125
1713449204177697500,3.747697509765625,-1.0549468994140625,-0.12860107421875,-0.376861572265625
1713449204187771000,3.75777099609375,-0.8119964599609375,-0.1319732666015625,-0.8659515380859375
1713449204197843700,3.76784375,-0.731048583984375,-0.088348388671875,-0.66064453125
1713449204207916800,3.777916748046875,-0.9843902587890625,-0.0826568603515625,-0.37469482421875
1713449204217991000,3.787990966796875,-1.111541748046875,-0.0771636962890625,-0.2693023681640625
1713449204228063700,3.798063720703125,-0.9690093994140625,-0.1002960205078125,-0.121551513671875
1713449204238136800,3.80813671875,-0.7494964599609375,-0.1421356201171875,0.0144805908203125
1713449204248209700,3.818209716796875,-0.687713623046875,-0.1271820068359375,0.0059967041015625
1713449204258282800,3.82828271484375,-0.8160400390625,-0.09332275390625,-0.0430908203125
1713449204268356900,3.83835693359375,-0.9784088134765625,-0.07049560546875,-0.0630645751953125
1713449204278429700,3.8484296875,-1.0415496826171875,-0.0688629150390625,-0.0837860107421875
1713449204288502800,3.858502685546875,-0.9358367919921875,-0.08123779296875,-0.129180908203125
1713449204298576000,3.868575927734375,-0.764892578125,-0.1039276123046875,-0.1362762451171875
1713449204308649700,3.878649658203125,-0.8453521728515625,-0.1243743896484375,-0.0844879150390625
1713449204318722800,3.888722900390625,-1.0261383056640625,-0.0884552001953125,-0.0790557861328125
1713449204328795600,3.898795654296875,-1.0913238525390625,-0.071807861328125,-0.14642333984375
1713449204338868700,3.90886865234375,-1.0905914306640625,-0.096343994140625,-0.19000244140625
1713449204348941800,3.91894189453125,-1.1105804443359375,-0.0940399169921875,-0.1885986328125
1713449204359015700,3.929015625,-1.1162872314453125,-0.0944976806640625,-0.1629180908203125
1713449204369088800,3.9390888671875,-1.10955810546875,-0.0920867919921875,-0.1539306640625
1713449204379161900,3.949161865234375,-1.1046600341796875,-0.0900115966796875,-0.1561279296875
1713449204389234700,3.959234619140625,-1.1018524169921875,-0.0909576416015625,-0.15216064453125
1713449204399308800,3.969308837890625,-1.078277587890625,-0.0833282470703125,-0.1545562744140625
1713449204409382000,3.9793818359375,-1.0540771484375,-0.08270263671875,-0.1534576416015625
1713449204419454700,3.989454833984375,-1.030364990234375,-0.09124755859375,-0.150848388671875
1713449204429527800,3.99952783203125,-0.997344970703125,-0.096832275390625,-0.1333465576171875
1713449204439601700,4.0096015625,-0.9602508544921875,-0.1063385009765625,-0.1290740966796875
1713449204449674800,4.0196748046875,-0.9269866943359375,-0.1032562255859375,-0.1368560791015625
1713449204459747800,4.029747802734375,-0.91424560546875,-0.097869873046875,-0.145751953125
1713449204469820700,4.039820556640625,-0.91064453125,-0.094085693359375,-0.1512603759765625
1713449204479893800,4.049893798828125,-0.9198150634765625,-0.0971221923828125,-0.1546173095703125
1713449204489967900,4.0599677734375,-0.9312591552734375,-0.099151611328125,-0.147674560546875
1713449204500040700,4.070040771484375,-0.9261932373046875,-0.1000518798828125,-0.1461639404296875
1713449204510113800,4.08011376953125,-0.924530029296875,-0.08447265625,-0.154876708984375
1713449204520186600,4.0901865234375,-0.947235107421875,-0.080108642578125,-0.15411376953125
1713449204530260700,4.1002607421875,-0.9969635009765625,-0.0812530517578125,-0.1535797119140625
1713449204540333800,4.110333740234375,-1.028594970703125,-0.080322265625,-0.1496734619140625
1713449204550406700,4.12040673828125,-1.052947998046875,-0.0790557861328125,-0.1544647216796875
1713449204560480000,4.13047998046875,-1.065216064453125,-0.08306884765625,-0.1745758056640625
1713449204570552800,4.140552734375,-1.050384521484375,-0.0693206787109375,-0.189727783203125
1713449204580626700,4.150626708984375,-1.05291748046875,-0.082000732421875,-0.1831207275390625
1713449204590699800,4.16069970703125,-1.07318115234375,-0.0885772705078125,-0.174346923828125
1713449204600772900,4.17077294921875,-1.0912933349609375,-0.0791778564453125,-0.1685333251953125
1713449204610845700,4.180845703125,-1.0839385986328125,-0.069305419921875,-0.17242431640625
1713449204620919800,4.190919921875,-1.0805206298828125,-0.076263427734375,-0.1827239990234375
1713449204630992600,4.20099267578125,-1.0640411376953125,-0.089752197265625,-0.190338134765625
1713449204641065500,4.2110654296875,-1.003173828125,-0.0865478515625,-0.173370361328125
1713449204651138600,4.221138671875,-0.9783935546875,-0.0789031982421875,-0.1865081787109375
1713449204661211600,4.231211669921875,-0.9688568115234375,-0.111419677734375,-0.193023681640625
1713449204671285500,4.241285400390625,-0.8400726318359375,-0.18927001953125,-0.24951171875
1713449204681358600,4.251358642578125,-0.764862060546875,-0.1463165283203125,-0.1582183837890625
1713449204691431400,4.261431396484375,-1.213287353515625,-0.0714874267578125,0.25506591796875
1713449204701504800,4.2715048828125,-1.1322479248046875,0.080230712890625,-0.1605682373046875
1713449204711578600,4.28157861328125,-0.9560699462890625,-0.1104278564453125,-0.128662109375
1713449204721651500,4.2916513671875,-1.0972137451171875,-0.071685791015625,-0.1908416748046875
1713449204731724800,4.301724853515625,-1.0079803466796875,-0.0847320556640625,-0.19500732421875
1713449204741797600,4.311797607421875,-0.839935302734375,-0.0754547119140625,-0.1779022216796875
1713449204751871500,4.32187158203125,-0.803619384765625,-0.0742645263671875,-0.1675262451171875
1713449204761944600,4.331944580078125,-0.8454132080078125,-0.0986328125,-0.1508331298828125
1713449204772017700,4.342017578125,-0.8791656494140625,-0.1181488037109375,-0.1179656982421875
1713449204782090800,4.3520908203125,-0.8424835205078125,-0.105682373046875,-0.11767578125
1713449204792163600,4.36216357421875,-0.9462890625,-0.129913330078125,-0.1637725830078125
1713449204802237700,4.37223779296875,-1.09539794921875,-0.09918212890625,-0.19927978515625
1713449204812310800,4.382310791015625,-1.053192138671875,-0.0524444580078125,-0.1858978271484375
1713449204822383600,4.392383544921875,-0.9139404296875,-0.0345916748046875,-0.167877197265625
1713449204832456700,4.402456787109375,-0.8448638916015625,-0.0634002685546875,-0.1779022216796875
1713449204842530800,4.41253076171875,-0.9313812255859375,-0.08319091796875,-0.1876068115234375
1713449204852603600,4.422603759765625,-1.0477752685546875,-0.0932159423828125,-0.1473388671875
1713449204862676700,4.4326767578125,-1.1024017333984375,-0.072998046875,-0.153839111328125
1713449204872749600,4.44274951171875,-1.0592193603515625,-0.0433807373046875,-0.2331390380859375
1713449204882822700,4.45282275390625,-1.0114288330078125,-0.0115509033203125,-0.3228912353515625
1713449204892896800,4.462896728515625,-1.016204833984375,-0.0002593994140625,-0.34759521484375
1713449204902969600,4.472969482421875,-1.0115509033203125,-0.0278167724609375,-0.3293914794921875
1713449204913042400,4.48304248046875,-0.9730987548828125,-0.0771026611328125,-0.297515869140625
1713449204923115800,4.49311572265625,-0.9721527099609375,-0.103851318359375,-0.246551513671875
1713449204933189600,4.503189697265625,-1.0134429931640625,-0.0756378173828125,-0.2204742431640625
1713449204943262500,4.513262451171875,-1.0170745849609375,-0.0240325927734375,-0.1621856689453125
1713449204953335600,4.52333544921875,-0.933807373046875,-0.05987548828125,-0.058380126953125
1713449204963408600,4.53340869140625,-0.8416900634765625,-0.1385345458984375,0.051361083984375
1713449204973481700,4.543481689453125,-0.8923492431640625,-0.199615478515625,0.044677734375
1713449204983555600,4.5535556640625,-0.9508209228515625,-0.171142578125,-0.02935791015625
1713449204993628700,4.563628662109375,-0.945526123046875,-0.1118927001953125,-0.0923919677734375
1713449205003701800,4.57370166015625,-0.93914794921875,-0.0907135009765625,-0.097808837890625
1713449205013774600,4.583774658203125,-0.953704833984375,-0.1084747314453125,-0.072418212890625
1713449205023848400,4.593848388671875,-0.94775390625,-0.1241912841796875,-0.0623016357421875
1713449205033921800,4.603921875,-0.939300537109375,-0.10675048828125,-0.1052703857421875
1713449205043994600,4.61399462890625,-0.92987060546875,-0.08831787109375,-0.1588897705078125
1713449205054067700,4.624067626953125,-0.925384521484375,-0.114593505859375,-0.1915283203125
1713449205064141800,4.634141845703125,-0.9388275146484375,-0.107330322265625,-0.24481201171875
1713449205074214700,4.644214599609375,-0.988861083984375,-0.0541229248046875,-0.253662109375
1713449205084287700,4.654287841796875,-1.0218505859375,-0.0504302978515625,-0.218414306640625
1713449205094360600,4.664360595703125,-0.991943359375,-0.069488525390625,-0.219940185546875
1713449205104433700,4.67443359375,-1.0136566162109375,-0.0638885498046875,-0.236602783203125
1713449205114507800,4.6845078125,-1.040740966796875,-0.0329437255859375,-0.2585601806640625
1713449205124580600,4.69458056640625,-1.0506439208984375,0.00164794921875,-0.260040283203125
1713449205134653700,4.70465380859375,-1.045684814453125,0.0032806396484375,-0.22418212890625
1713449205144726800,4.714726806640625,-1.03546142578125,-0.0141143798828125,-0.1941986083984375
1713449205154800600,4.724800537109375,-0.999481201171875,-0.054656982421875,-0.1689453125
1713449205164873700,4.734873779296875,-0.9969940185546875,-0.0953521728515625,-0.13946533203125
1713449205174946600,4.744946533203125,-1.0063018798828125,-0.0948486328125,-0.1532745361328125
1713449205185019600,4.75501953125,-0.9772491455078125,-0.06634521484375,-0.1864471435546875
1713449205195092700,4.7650927734375,-0.9675445556640625,-0.036376953125,-0.2131805419921875
1713449205205166600,4.77516650390625,-0.9714813232421875,-0.0112457275390625,-0.232421875
1713449205215239400,4.785239501953125,-0.95489501953125,-0.0142669677734375,-0.213409423828125
1713449205225312800,4.795312744140625,-0.9188232421875,-0.0532989501953125,-0.1976318359375
1713449205235385600,4.805385498046875,-0.9313201904296875,-0.0928955078125,-0.1666259765625
1713449205245459500,4.81545947265625,-0.9558868408203125,-0.100433349609375,-0.1496734619140625
1713449205255532800,4.82553271484375,-0.9413909912109375,-0.0562286376953125,-0.186676025390625
1713449205265605600,4.835605712890625,-0.906585693359375,-0.020782470703125,-0.2137298583984375
1713449205275678700,4.8456787109375,-0.8902740478515625,-0.0351104736328125,-0.1928558349609375
1713449205285751600,4.85575146484375,-0.89605712890625,-0.049835205078125,-0.1677398681640625
1713449205295825700,4.86582568359375,-0.89556884765625,-0.0787811279296875,-0.142303466796875
1713449205305898800,4.875898681640625,-0.8826904296875,-0.106048583984375,-0.136474609375
1713449205315971600,4.8859716796875,-0.882049560546875,-0.1026153564453125,-0.140106201171875
1713449205326044700,4.896044677734375,-0.8905487060546875,-0.0848846435546875,-0.16387939453125
1713449205336118800,4.906118896484375,-0.8947906494140625,-0.0692138671875,-0.18975830078125
1713449205346191600,4.916191650390625,-0.90362548828125,-0.058502197265625,-0.2094268798828125
1713449205356264700,4.9262646484375,-0.9100799560546875,-0.0501556396484375,-0.2230072021484375
1713449205366337500,4.936337646484375,-0.918609619140625,-0.047454833984375,-0.2159271240234375
1713449205376410600,4.94641064453125,-0.9250030517578125,-0.057891845703125,-0.2111053466796875
1713449205386484700,4.956484619140625,-0.944488525390625,-0.0630645751953125,-0.220611572265625
1713449205396557600,4.9665576171875,-0.979156494140625,-0.0710601806640625,-0.2200469970703125
1713449205406630700,4.976630615234375,-1.0114593505859375,-0.0517730712890625,-0.2374114990234375
1713449205416703700,4.986703857421875,-1.0151214599609375,-0.00726318359375,-0.2818603515625
1713449205426777600,4.996777587890625,-1.0200347900390625,0.008453369140625,-0.275421142578125
1713449205436850400,5.006850341796875,-1.0269927978515625,0.0005340576171875,-0.249237060546875
1713449205446923800,5.016923828125,-1.0244598388671875,0.005126953125,-0.214599609375
1713449205456996600,5.02699658203125,-1.0380096435546875,-0.008575439453125,-0.2421112060546875
1713449205467070500,5.037070556640625,-1.025787353515625,0.0024566650390625,-0.284942626953125
1713449205477143600,5.0471435546875,-1.0243988037109375,0.0016021728515625,-0.2841033935546875
1713449205487216600,5.057216552734375,-1.03790283203125,-0.03289794921875,-0.2299652099609375
1713449205497289700,5.067289794921875,-1.046539306640625,-0.0297698974609375,-0.180572509765625
1713449205507362600,5.077362548828125,-0.815521240234375,0.0288543701171875,-0.16082763671875
1713449205517436700,5.087436767578125,-1.0822601318359375,-0.06103515625,-0.32891845703125
1713449205527509800,5.097509765625,-0.9827728271484375,-0.0246429443359375,-0.3342132568359375
1713449205537582600,5.10758251953125,-0.95184326171875,-0.036346435546875,-0.248016357421875
1713449205547655700,5.11765576171875,-0.9698638916015625,-0.0461578369140625,-0.2549285888671875
1713449205557729800,5.127729736328125,-0.9655914306640625,-0.0431671142578125,-0.229278564453125
1713449205567802600,5.137802734375,-0.9635467529296875,-0.0427703857421875,-0.24554443359375
1713449205577875700,5.147875732421875,-0.961456298828125,-0.04022216796875,-0.23577880859375
1713449205587948500,5.157948486328125,-0.9660797119140625,-0.0474700927734375,-0.21759033203125
1713449205598021600,5.168021728515625,-0.9683990478515625,-0.04443359375,-0.2124481201171875
1713449205608095700,5.178095703125,-0.9804229736328125,-0.033050537109375,-0.22052001953125
1713449205618168600,5.18816845703125,-0.98358154296875,-0.033050537109375,-0.225494384765625
1713449205628241700,5.19824169921875,-0.9805755615234375,-0.038238525390625,-0.228057861328125
1713449205638314800,5.208314697265625,-0.983245849609375,-0.0433349609375,-0.2228851318359375
1713449205648388900,5.218388916015625,-0.979248046875,-0.0369415283203125,-0.21612548828125
1713449205658462000,5.2284619140625,-0.974578857421875,-0.0338592529296875,-0.211090087890625
1713449205668535000,5.23853515625,-0.97991943359375,-0.0363616943359375,-0.210662841796875
1713449205678608000,5.24860791015625,-0.98883056640625,-0.0306854248046875,-0.210235595703125
1713449205688681700,5.258681640625,-1.000946044921875,-0.033447265625,-0.2104949951171875
1713449205698755000,5.268755126953125,-1.0089569091796875,-0.028076171875,-0.2141571044921875
1713449205708828000,5.278827880859375,-1.0156097412109375,-0.02105712890625,-0.2174835205078125
1713449205718901000,5.28890087890625,-1.0152740478515625,-0.0199432373046875,-0.2181243896484375
1713449205728973800,5.298973876953125,-1.010406494140625,-0.0196533203125,-0.21539306640625
1713449205739048000,5.3090478515625,-1.008758544921875,-0.0184326171875,-0.2156829833984375
1713449205749121000,5.31912109375,-1.010162353515625,-0.016632080078125,-0.2141876220703125
1713449205759193900,5.32919384765625,-1.0004730224609375,-0.0202178955078125,-0.208953857421875
1713449205769267000,5.339266845703125,-0.9951324462890625,-0.0229949951171875,-0.206024169921875
1713449205779341000,5.349341064453125,-1.0071868896484375,-0.025054931640625,-0.2033538818359375
1713449205789414000,5.359413818359375,-1.018341064453125,-0.0249786376953125,-0.204254150390625
1713449205799487000,5.369487060546875,-1.016082763671875,-0.026641845703125,-0.2045745849609375
1713449205809559800,5.379559814453125,-1.008697509765625,-0.0277557373046875,-0.2083740234375
1713449205819633000,5.3896328125,-1.0020294189453125,-0.028839111328125,-0.2103118896484375
1713449205829707000,5.39970703125,-0.9958343505859375,-0.027801513671875,-0.2124481201171875
1713449205839779800,5.40977978515625,-0.99505615234375,-0.027435302734375,-0.211822509765625
1713449205849853000,5.41985302734375,-0.995849609375,-0.0280609130859375,-0.2109222412109375
1713449205859926000,5.429926025390625,-0.996002197265625,-0.0290985107421875,-0.212249755859375
1713449205869999900,5.439999755859375,-0.9839019775390625,-0.0359344482421875,-0.2125701904296875
1713449205880073000,5.450072998046875,-0.973602294921875,-0.038482666015625,-0.2109832763671875
1713449205890146000,5.46014599609375,-0.968231201171875,-0.037750244140625,-0.2106781005859375
1713449205900219000,5.470218994140625,-0.9676513671875,-0.0372161865234375,-0.2111663818359375
1713449205910292000,5.4802919921875,-0.9705657958984375,-0.036773681640625,-0.213836669921875
1713449205920366000,5.490365966796875,-0.9741058349609375,-0.0380859375,-0.21405029296875
1713449205930439000,5.50043896484375,-0.9820556640625,-0.0388641357421875,-0.214996337890625
1713449205940512000,5.510511962890625,-0.986114501953125,-0.0382537841796875,-0.21539306640625
1713449205950584800,5.520584716796875,-0.9911346435546875,-0.0411529541015625,-0.2140655517578125
1713449205960659000,5.530658935546875,-0.9991302490234375,-0.0401611328125,-0.214447021484375
1713449205970732000,5.54073193359375,-0.997039794921875,-0.04046630859375,-0.214569091796875
1713449205980804900,5.550804931640625,-0.9908447265625,-0.0381011962890625,-0.2153472900390625
1713449205990878000,5.5608779296875,-0.9882965087890625,-0.039459228515625,-0.212890625
1713449206000952000,5.5709521484375,-0.9732666015625,-0.044891357421875,-0.208343505859375
1713449206011025000,5.58102490234375,-0.965789794921875,-0.0440673828125,-0.20587158203125
1713449206021098000,5.591097900390625,-0.96575927734375,-0.0436553955078125,-0.2080078125
1713449206031170800,5.6011708984375,-0.969940185546875,-0.041229248046875,-0.208709716796875
1713449206041244000,5.611243896484375,-0.975860595703125,-0.0423431396484375,-0.208343505859375
1713449206051318000,5.621318115234375,-0.971038818359375,-0.0419158935546875,-0.21038818359375
1713449206061390800,5.631390869140625,-0.9613494873046875,-0.042327880859375,-0.2068634033203125
1713449206071464000,5.6414638671875,-0.952911376953125,-0.043121337890625,-0.20477294921875
1713449206081537000,5.651537109375,-0.939727783203125,-0.042510986328125,-0.2013702392578125
1713449206091611000,5.66161083984375,-0.9343719482421875,-0.043792724609375,-0.1959686279296875
1713449206101684000,5.67168408203125,-0.9434051513671875,-0.044586181640625,-0.1926727294921875
1713449206111757000,5.681757080078125,-0.9680633544921875,-0.0434417724609375,-0.195648193359375
1713449206121830000,5.691829833984375,-0.988128662109375,-0.045623779296875,-0.200714111328125
1713449206131903000,5.701903076171875,-1.0057525634765625,-0.04632568359375,-0.2065582275390625
1713449206141976800,5.711976806640625,-1.0108642578125,-0.0462799072265625,-0.222747802734375
1713449206152050000,5.7220498046875,-1.0020294189453125,-0.045074462890625,-0.221435546875
1713449206162123000,5.732123046875,-0.987030029296875,-0.0431365966796875,-0.2238006591796875
1713449206172195800,5.74219580078125,-0.9819793701171875,-0.03875732421875,-0.2257537841796875
1713449206182270000,5.75227001953125,-0.978973388671875,-0.0354461669921875,-0.2236480712890625
1713449206192343000,5.762343017578125,-0.987274169921875,-0.0349884033203125,-0.22039794921875
1713449206202415900,5.772415771484375,-0.99005126953125,-0.035064697265625,-0.2197418212890625
1713449206212489000,5.782489013671875,-0.9931640625,-0.0334625244140625,-0.2160797119140625
1713449206222561800,5.792561767578125,-0.9993133544921875,-0.0347747802734375,-0.212677001953125
1713449206232636000,5.802635986328125,-0.9966583251953125,-0.0337982177734375,-0.206512451171875
1713449206242709000,5.812708984375,-0.98602294921875,-0.0356903076171875,-0.1992034912109375
1713449206252781800,5.82278173828125,-0.9722442626953125,-0.0381011962890625,-0.191497802734375
1713449206262855000,5.83285498046875,-0.9595489501953125,-0.0382080078125,-0.1855621337890625
1713449206272929000,5.842928955078125,-0.9473876953125,-0.04034423828125,-0.1838836669921875
1713449206283001900,5.853001953125,-0.9398193359375,-0.0409088134765625,-0.18511962890625
1713449206293075000,5.863074951171875,-0.937103271484375,-0.0399322509765625,-0.180908203125
1713449206303148000,5.87314794921875,-0.93719482421875,-0.0380401611328125,-0.1804046630859375
1713449206313220900,5.883220947265625,-0.9409332275390625,-0.0360260009765625,-0.1821136474609375
1713449206323295000,5.893294921875,-0.94549560546875,-0.035308837890625,-0.1827239990234375
1713449206333367800,5.903367919921875,-0.9543304443359375,-0.0356903076171875,-0.1839599609375
1713449206343441000,5.91344091796875,-0.9637298583984375,-0.033233642578125,-0.1858062744140625
1713449206353514000,5.923513916015625,-0.9758453369140625,-0.0327301025390625,-0.187835693359375
1713449206363587800,5.933587890625,-0.9829559326171875,-0.031524658203125,-0.1903533935546875
1713449206373661000,5.943660888671875,-0.9881439208984375,-0.0298004150390625,-0.1906890869140625
1713449206383734000,5.953734130859375,-0.9901123046875,-0.0306396484375,-0.1939697265625
1713449206393806800,5.963806884765625,-0.985198974609375,-0.0321807861328125,-0.19464111328125
1713449206403881000,5.973880859375,-0.980865478515625,-0.03338623046875,-0.190887451171875
1713449206413954000,5.9839541015625,-0.9814300537109375,-0.0279083251953125,-0.1888275146484375
1713449206424027000,5.99402685546875,-0.9930572509765625,-0.0246734619140625,-0.1878509521484375
1713449206434100000,6.004099853515625,-1.0000762939453125,-0.0257415771484375,-0.189239501953125
1713449206444172800,6.0141728515625,-1.0011749267578125,-0.0240478515625,-0.1885528564453125
1713449206454247000,6.024246826171875,-0.9989471435546875,-0.024383544921875,-0.1916961669921875
1713449206464320000,6.034320068359375,-0.99774169921875,-0.0240478515625,-0.19256591796875
1713449206474392800,6.044392822265625,-0.9940338134765625,-0.022735595703125,-0.192474365234375
1713449206484466000,6.0544658203125,-0.99005126953125,-0.024322509765625,-0.19091796875
1713449206494540000,6.0645400390625,-0.9917144775390625,-0.0222930908203125,-0.1893310546875
1713449206504612900,6.07461279296875,-0.989959716796875,-0.0229644775390625,-0.192779541015625
1713449206514686000,6.08468603515625,-0.983062744140625,-0.0248260498046875,-0.193511962890625
1713449206524758800,6.0947587890625,-0.978424072265625,-0.0262603759765625,-0.193756103515625
1713449206534832000,6.10483203125,-0.970794677734375,-0.02508544921875,-0.190582275390625
1713449206544906000,6.114906005859375,-0.966583251953125,-0.027252197265625,-0.18719482421875
1713449206554978800,6.124978759765625,-0.9667510986328125,-0.0260772705078125,-0.1879730224609375
1713449206565052200,6.13505224609375,-0.9693450927734375,-0.024078369140625,-0.1905059814453125
1713449206575125000,6.145125,-0.9735870361328125,-0.02484130859375,-0.1917572021484375
1713449206585198800,6.15519873046875,-0.9766387939453125,-0.02423095703125,-0.193145751953125
1713449206595272000,6.16527197265625,-0.979278564453125,-0.02520751953125,-0.1912841796875
1713449206605345000,6.175344970703125,-0.980926513671875,-0.0261383056640625,-0.191009521484375
1713449206615417900,6.18541796875,-0.9821929931640625,-0.02362060546875,-0.1922454833984375
1713449206625491000,6.195490966796875,-0.9846649169921875,-0.0263671875,-0.191131591796875
1713449206635565000,6.20556494140625,-0.9854888916015625,-0.0243072509765625,-0.192108154296875
1713449206645637600,6.2156376953125,-0.9856109619140625,-0.0237579345703125,-0.192291259765625
1713449206655710700,6.225710693359375,-0.9851531982421875,-0.023284912109375,-0.1929473876953125
1713449206665783600,6.235783447265625,-0.9852447509765625,-0.02545166015625,-0.192169189453125
1713449206675857700,6.245857666015625,-0.9833831787109375,-0.0241241455078125,-0.1905364990234375
1713449206685930800,6.2559306640625,-0.9820709228515625,-0.024200439453125,-0.190673828125
1713449206696003600,6.266003662109375,-0.9789581298828125,-0.0262603759765625,-0.1891937255859375
1713449206706076700,6.27607666015625,-0.9745635986328125,-0.027587890625,-0.1893310546875
1713449206716149500,6.2861494140625,-0.9730224609375,-0.0258636474609375,-0.18896484375
1713449206726223600,6.2962236328125,-0.9743194580078125,-0.025177001953125,-0.1898956298828125
1713449206736296700,6.306296630859375,-0.977020263671875,-0.02679443359375,-0.191131591796875
1713449206746369500,6.31636962890625,-0.97808837890625,-0.0279541015625,-0.191802978515625
1713449206756442600,6.326442626953125,-0.9774627685546875,-0.0269775390625,-0.18975830078125
1713449206766516700,6.336516845703125,-0.9792327880859375,-0.02630615234375,-0.189361572265625
1713449206776589600,6.346589599609375,-0.979583740234375,-0.027557373046875,-0.191070556640625
1713449206786662700,6.35666259765625,-0.9735107421875,-0.0282440185546875,-0.190582275390625
1713449206796735500,6.366735595703125,-0.975006103515625,-0.02740478515625,-0.191802978515625
1713449206806808800,6.376808837890625,-0.97735595703125,-0.0275421142578125,-0.193206787109375
1713449206816882700,6.386882568359375,-0.9807281494140625,-0.0261077880859375,-0.1930694580078125
1713449206826955500,6.39695556640625,-0.9824981689453125,-0.0255889892578125,-0.193817138671875
1713449206837028900,6.40702880859375,-0.9859161376953125,-0.025787353515625,-0.1955108642578125
1713449206847101700,6.417101806640625,-0.9867706298828125,-0.0266876220703125,-0.1935882568359375
1713449206857175600,6.427175537109375,-0.9846649169921875,-0.025970458984375,-0.193572998046875
1713449206867248600,6.43724853515625,-0.9815826416015625,-0.0259857177734375,-0.19256591796875
1713449206877321700,6.44732177734375,-0.982940673828125,-0.026947021484375,-0.1937408447265625
1713449206887394600,6.45739453125,-0.9801788330078125,-0.0269622802734375,-0.1952056884765625
1713449206897468700,6.46746875,-0.9797821044921875,-0.027557373046875,-0.194183349609375
1713449206907541800,6.477541748046875,-0.9790496826171875,-0.028106689453125,-0.1930999755859375
1713449206917614600,6.487614501953125,-0.9794158935546875,-0.025970458984375,-0.192230224609375
1713449206927687700,6.497687744140625,-0.979217529296875,-0.028106689453125,-0.1921234130859375
1713449206937760500,6.507760498046875,-0.9771270751953125,-0.0286712646484375,-0.1924591064453125
1713449206947834600,6.517834716796875,-0.9759063720703125,-0.0274505615234375,-0.1919097900390625
1713449206957907700,6.52790771484375,-0.9757537841796875,-0.0270233154296875,-0.18988037109375
1713449206967980500,6.53798046875,-0.9745635986328125,-0.028594970703125,-0.1908111572265625
1713449206978053600,6.5480537109375,-0.976226806640625,-0.0283203125,-0.191253662109375
1713449206988127700,6.558127685546875,-0.978485107421875,-0.0283203125,-0.191436767578125
1713449206998200600,6.56820068359375,-0.980316162109375,-0.028900146484375,-0.1915283203125
1713449207008273700,6.578273681640625,-0.98065185546875,-0.0285797119140625,-0.19354248046875
1713449207018346500,6.588346435546875,-0.9807586669921875,-0.0279541015625,-0.192901611328125
1713449207028419800,6.598419921875,-0.983551025390625,-0.0279998779296875,-0.1927032470703125
1713449207038493700,6.60849365234375,-0.9842071533203125,-0.02764892578125,-0.1939849853515625
1713449207048566500,6.61856640625,-0.9848480224609375,-0.0272064208984375,-0.1932525634765625
1713449207058639600,6.6286396484375,-0.9850616455078125,-0.02581787109375,-0.192901611328125
1713449207068712700,6.638712646484375,-0.984161376953125,-0.027679443359375,-0.1950225830078125
1713449207078786600,6.64878662109375,-0.98284912109375,-0.0254669189453125,-0.1934051513671875
1713449207088859600,6.658859619140625,-0.982025146484375,-0.026031494140625,-0.194976806640625
1713449207098932700,6.6689326171875,-0.9801177978515625,-0.025390625,-0.19512939453125
1713449207109005600,6.679005615234375,-0.9776153564453125,-0.025726318359375,-0.194091796875
1713449207119078700,6.68907861328125,-0.9767913818359375,-0.02655029296875,-0.195465087890625
1713449207129152500,6.699152587890625,-0.9758758544921875,-0.0292510986328125,-0.194976806640625
1713449207139225600,6.7092255859375,-0.9738006591796875,-0.0298919677734375,-0.194671630859375
1713449207149298700,6.719298583984375,-0.9752044677734375,-0.0293426513671875,-0.195098876953125
1713449207159371500,6.72937158203125,-0.974639892578125,-0.028900146484375,-0.1958160400390625
1713449207169445600,6.739445556640625,-0.976715087890625,-0.0301055908203125,-0.194915771484375
1713449207179518700,6.749518798828125,-0.9772186279296875,-0.0294647216796875,-0.193603515625
1713449207189591600,6.759591552734375,-0.9788665771484375,-0.0278778076171875,-0.19354248046875
1713449207199664600,6.76966455078125,-0.979736328125,-0.028778076171875,-0.194580078125
1713449207209737500,6.779737548828125,-0.976593017578125,-0.0296478271484375,-0.19549560546875
1713449207219811600,6.7898115234375,-0.9743804931640625,-0.0311279296875,-0.192413330078125
1713449207229884700,6.799884765625,-0.977325439453125,-0.0300750732421875,-0.192108154296875
1713449207239957500,6.80995751953125,-0.9864654541015625,-0.0288848876953125,-0.1930389404296875
1713449207250030800,6.82003076171875,-0.984893798828125,-0.0288543701171875,-0.193511962890625
1713449207260104700,6.830104736328125,-0.980804443359375,-0.0306549072265625,-0.1935272216796875
1713449207270177500,6.840177490234375,-0.9770965576171875,-0.0291595458984375,-0.1927642822265625
1713449207280250600,6.850250732421875,-0.97808837890625,-0.030364990234375,-0.1934814453125
1713449207290323700,6.86032373046875,-0.9777984619140625,-0.030975341796875,-0.1942291259765625
1713449207300397600,6.8703974609375,-0.975921630859375,-0.031646728515625,-0.1914825439453125
1713449207310470700,6.880470703125,-0.974517822265625,-0.0305938720703125,-0.1910247802734375
1713449207320543500,6.89054345703125,-0.9754486083984375,-0.032196044921875,-0.19439697265625
1713449207330616800,6.900616943359375,-0.977081298828125,-0.030303955078125,-0.1918487548828125
1713449207340689700,6.910689697265625,-0.976959228515625,-0.0303802490234375,-0.1923980712890625
1713449207350763500,6.920763427734375,-0.9757537841796875,-0.0309295654296875,-0.1917724609375
1713449207360836900,6.9308369140625,-0.9770355224609375,-0.030853271484375,-0.19305419921875
1713449207370909700,6.94090966796875,-0.977996826171875,-0.029876708984375,-0.19342041015625
1713449207380982500,6.950982421875,-0.9791107177734375,-0.0291748046875,-0.192840576171875
1713449207391056600,6.961056640625,-0.9807586669921875,-0.0289459228515625,-0.1954193115234375
1713449207401129700,6.971129638671875,-0.980926513671875,-0.0290985107421875,-0.1968841552734375
1713449207411202600,6.98120263671875,-0.982391357421875,-0.0274810791015625,-0.1978759765625
1713449207421275600,6.991275634765625,-0.982330322265625,-0.027679443359375,-0.195953369140625
1713449207431348500,7.001348388671875,-0.9808807373046875,-0.0278472900390625,-0.195587158203125
1713449207441422600,7.011422607421875,-0.9822235107421875,-0.0309295654296875,-0.1976165771484375
1713449207451495700,7.02149560546875,-0.98272705078125,-0.029052734375,-0.19696044921875
1713449207461568500,7.031568603515625,-0.9830169677734375,-0.028350830078125,-0.194976806640625
1713449207471641600,7.0416416015625,-0.9838714599609375,-0.0297393798828125,-0.1924285888671875
1713449207481715700,7.0517158203125,-0.980438232421875,-0.0310211181640625,-0.192108154296875
1713449207491788500,7.06178857421875,-0.979278564453125,-0.02972412109375,-0.1934967041015625
1713449207501861600,7.071861572265625,-0.979400634765625,-0.029541015625,-0.1936798095703125
1713449207511934700,7.081934814453125,-0.97674560546875,-0.03045654296875,-0.193267822265625
1713449207522007800,7.0920078125,-0.973358154296875,-0.0305938720703125,-0.19183349609375
1713449207532081700,7.10208154296875,-0.972442626953125,-0.0300445556640625,-0.193206787109375
1713449207542154500,7.112154541015625,-0.9735107421875,-0.0300140380859375,-0.1935882568359375
1713449207552227800,7.122227783203125,-0.9776611328125,-0.0298004150390625,-0.19287109375
1713449207562300700,7.13230078125,-0.9778594970703125,-0.0284881591796875,-0.1931915283203125
1713449207572374500,7.14237451171875,-0.9792327880859375,-0.0299530029296875,-0.1930694580078125
1713449207582447600,7.152447509765625,-0.981170654296875,-0.0294647216796875,-0.1946258544921875
1713449207592520700,7.162520751953125,-0.9805450439453125,-0.0306854248046875,-0.1932525634765625
1713449207602593500,7.172593505859375,-0.9792022705078125,-0.0318145751953125,-0.194732666015625
1713449207612667600,7.182667724609375,-0.9781036376953125,-0.030548095703125,-0.1961669921875
1713449207622740700,7.19274072265625,-0.9792327880859375,-0.03155517578125,-0.1934051513671875
1713449207632813600,7.2028134765625,-0.9790496826171875,-0.0313262939453125,-0.1944427490234375
1713449207642886700,7.21288671875,-0.979217529296875,-0.030059814453125,-0.1942901611328125
1713449207652959500,7.22295947265625,-0.9795684814453125,-0.0298309326171875,-0.19580078125
1713449207663033600,7.23303369140625,-0.9801177978515625,-0.03106689453125,-0.1947174072265625
1713449207673106700,7.243106689453125,-0.9794158935546875,-0.030670166015625,-0.1964111328125
1713449207683179500,7.253179443359375,-0.9803924560546875,-0.02923583984375,-0.196136474609375
1713449207693252600,7.263252685546875,-0.97967529296875,-0.029205322265625,-0.1956787109375
1713449207703326500,7.273326416015625,-0.98126220703125,-0.028717041015625,-0.195068359375
1713449207713399600,7.283399658203125,-0.9803009033203125,-0.027679443359375,-0.1969757080078125
1713449207723472600,7.29347265625,-0.97833251953125,-0.0290069580078125,-0.1938934326171875
1713449207733545500,7.30354541015625,-0.977020263671875,-0.0305633544921875,-0.19329833984375
1713449207743618600,7.31361865234375,-0.976959228515625,-0.0297393798828125,-0.194671630859375
1713449207753692700,7.323692626953125,-0.977447509765625,-0.0298919677734375,-0.1946563720703125
1713449207763765500,7.333765625,-0.9786529541015625,-0.029632568359375,-0.193450927734375
1713449207773838600,7.343838623046875,-0.975860595703125,-0.0315399169921875,-0.1934661865234375
1713449207783911400,7.353911376953125,-0.9773101806640625,-0.0301055908203125,-0.1944732666015625
1713449207793985500,7.363985595703125,-0.97705078125,-0.02886962890625,-0.1939544677734375
1713449207804058600,7.37405859375,-0.9781036376953125,-0.0279083251953125,-0.1933746337890625
1713449207814131500,7.38413134765625,-0.9815673828125,-0.0286407470703125,-0.196044921875
1713449207824204500,7.39420458984375,-0.982421875,-0.0272979736328125,-0.1945037841796875
1713449207834278700,7.404278564453125,-0.9803314208984375,-0.028533935546875,-0.1944732666015625
1713449207844351500,7.4143515625,-0.9789276123046875,-0.0292205810546875,-0.1929168701171875
1713449207854424600,7.424424560546875,-0.979278564453125,-0.0294647216796875,-0.195068359375
1713449207864497700,7.43449755859375,-0.9782562255859375,-0.028839111328125,-0.1945648193359375
1713449207874570500,7.444570556640625,-0.9803924560546875,-0.0276031494140625,-0.1924896240234375
1713449207884644600,7.45464453125,-0.981719970703125,-0.02923583984375,-0.192840576171875
1713449207894717400,7.464717529296875,-0.9816436767578125,-0.0292205810546875,-0.1938629150390625
1713449207904790500,7.47479052734375,-0.9808502197265625,-0.0285491943359375,-0.194091796875
1713449207914863600,7.484863525390625,-0.97991943359375,-0.0288848876953125,-0.194854736328125
1713449207924937500,7.4949375,-0.975555419921875,-0.02947998046875,-0.1930084228515625
1713449207935010600,7.505010498046875,-0.97747802734375,-0.02978515625,-0.192413330078125
1713449207945083600,7.515083740234375,-0.981414794921875,-0.027252197265625,-0.1936798095703125
1713449207955156500,7.525156494140625,-0.98468017578125,-0.026824951171875,-0.1944732666015625
1713449207965229600,7.5352294921875,-0.979888916015625,-0.0297698974609375,-0.1945037841796875
1713449207975303700,7.5453037109375,-0.9742584228515625,-0.0287628173828125,-0.194549560546875
1713449207985376500,7.55537646484375,-0.973419189453125,-0.028656005859375,-0.1957855224609375
1713449207995449600,7.56544970703125,-0.9762725830078125,-0.029327392578125,-0.1938323974609375
1713449208005522400,7.5755224609375,-0.9776153564453125,-0.0298919677734375,-0.194091796875
1713449208015596500,7.585596435546875,-0.9786834716796875,-0.0296630859375,-0.194488525390625
1713449208025669600,7.595669677734375,-0.980072021484375,-0.028900146484375,-0.19384765625
1713449208035742500,7.605742431640625,-0.980010986328125,-0.028564453125,-0.1932830810546875
1713449208045815600,7.615815673828125,-0.9795684814453125,-0.028778076171875,-0.193359375
1713449208055889700,7.6258896484375,-0.9798736572265625,-0.0292816162109375,-0.19451904296875
1713449208065962500,7.63596240234375,-0.979949951171875,-0.02874755859375,-0.1962738037109375
1713449208076035600,7.64603564453125,-0.980316162109375,-0.0271759033203125,-0.1948089599609375
1713449208086108400,7.6561083984375,-0.98065185546875,-0.0272979736328125,-0.19451904296875
1713449208096181500,7.666181396484375,-0.979095458984375,-0.0278167724609375,-0.1949310302734375
1713449208106255600,7.676255615234375,-0.9792022705078125,-0.026611328125,-0.195465087890625
1713449208116328400,7.686328369140625,-0.9798583984375,-0.0266876220703125,-0.1943359375
1713449208126401500,7.696401611328125,-0.9779815673828125,-0.027374267578125,-0.1941070556640625
1713449208136474600,7.706474609375,-0.9777374267578125,-0.0276947021484375,-0.194305419921875
1713449208146548500,7.716548583984375,-0.97747802734375,-0.025482177734375,-0.193572998046875
1713449208156621600,7.72662158203125,-0.978240966796875,-0.027435302734375,-0.1928863525390625
1713449208166694700,7.736694580078125,-0.9788970947265625,-0.029296875,-0.1920623779296875
1713449208176767500,7.746767578125,-0.9793548583984375,-0.029449462890625,-0.19171142578125
1713449208186841600,7.756841552734375,-0.9774322509765625,-0.0290374755859375,-0.19256591796875
1713449208196914700,7.766914794921875,-0.976654052734375,-0.0272216796875,-0.193267822265625
1713449208206987500,7.776987548828125,-0.9787139892578125,-0.02801513671875,-0.1944580078125
1713449208217060600,7.787060546875,-0.9813995361328125,-0.0276641845703125,-0.1945343017578125
1713449208227133400,7.797133544921875,-0.9801483154296875,-0.027130126953125,-0.194580078125
1713449208237207600,7.80720751953125,-0.9776458740234375,-0.027740478515625,-0.194915771484375
1713449208247280600,7.81728076171875,-0.9798431396484375,-0.0279693603515625,-0.1957244873046875
1713449208257353500,7.827353515625,-0.9808197021484375,-0.02655029296875,-0.1959075927734375
1713449208267426600,7.837426513671875,-0.97930908203125,-0.026702880859375,-0.1947021484375
1713449208277500700,7.847500732421875,-0.97979736328125,-0.0261993408203125,-0.19384765625
1713449208287573500,7.857573486328125,-0.97991943359375,-0.026947021484375,-0.1939544677734375
1713449208297646600,7.867646484375,-0.9789581298828125,-0.025970458984375,-0.19464111328125
1713449208307719400,7.877719482421875,-0.9793548583984375,-0.02703857421875,-0.193695068359375
1713449208317792800,7.887792724609375,-0.9774932861328125,-0.0274658203125,-0.1945343017578125
1713449208327866600,7.89786669921875,-0.976959228515625,-0.0272369384765625,-0.1923370361328125
1713449208337939500,7.907939453125,-0.977203369140625,-0.0274505615234375,-0.1943359375
1713449208348012500,7.918012451171875,-0.97747802734375,-0.028076171875,-0.1930999755859375
1713449208358085600,7.928085693359375,-0.9777984619140625,-0.027496337890625,-0.193359375
1713449208368159500,7.938159423828125,-0.980682373046875,-0.0269317626953125,-0.1954803466796875
1713449208378232600,7.948232666015625,-0.98065185546875,-0.0258331298828125,-0.194732666015625
1713449208388305700,7.9583056640625,-0.9810028076171875,-0.025634765625,-0.19671630859375
1713449208398378500,7.96837841796875,-0.9810638427734375,-0.026397705078125,-0.194061279296875
1713449208408452600,7.97845263671875,-0.9794769287109375,-0.0261077880859375,-0.1936798095703125
1713449208418525400,7.988525390625,-0.9806671142578125,-0.0264739990234375,-0.194610595703125
1713449208428598500,7.9985986328125,-0.9793701171875,-0.0268402099609375,-0.19403076171875
1713449208438671600,8.008671630859375,-0.9800567626953125,-0.0278472900390625,-0.194061279296875
1713449208448744400,8.018744384765625,-0.979583740234375,-0.0281524658203125,-0.1927490234375
1713449208458818600,8.028818603515624,-0.9784393310546875,-0.0275115966796875,-0.194091796875
1713449208468891600,8.0388916015625,-0.977752685546875,-0.028961181640625,-0.19488525390625
1713449208478964500,8.048964599609375,-0.9776153564453125,-0.0290679931640625,-0.1958770751953125
1713449208489037600,8.05903759765625,-0.9757232666015625,-0.026885986328125,-0.1938323974609375
1713449208499111700,8.069111572265625,-0.9766693115234375,-0.0272369384765625,-0.1942291259765625
1713449208509184500,8.0791845703125,-0.9767608642578125,-0.027740478515625,-0.19256591796875
1713449208519257600,8.089257568359375,-0.9770965576171875,-0.02850341796875,-0.192840576171875
1713449208529330400,8.099330322265626,-0.979339599609375,-0.0250244140625,-0.1959075927734375
1713449208539404500,8.109404541015625,-0.9797210693359375,-0.0266571044921875,-0.19573974609375
1713449208549477600,8.1194775390625,-0.9814605712890625,-0.0260467529296875,-0.194427490234375
1713449208559550500,8.129550537109376,-0.9801025390625,-0.0253753662109375,-0.1934661865234375
1713449208569623600,8.13962353515625,-0.98095703125,-0.024566650390625,-0.1932525634765625
1713449208579696600,8.149696533203125,-0.9814300537109375,-0.024139404296875,-0.195770263671875
1713449208589770500,8.1597705078125,-0.981231689453125,-0.0256500244140625,-0.1963958740234375
1713449208599843600,8.169843505859374,-0.980987548828125,-0.025787353515625,-0.195159912109375
1713449208609916400,8.17991650390625,-0.9802398681640625,-0.0261688232421875,-0.1953277587890625
1713449208619989800,8.18998974609375,-0.9818878173828125,-0.02777099609375,-0.19482421875
1713449208630063600,8.200063720703126,-0.979156494140625,-0.02716064453125,-0.1960906982421875
1713449208640136400,8.210136474609374,-0.9763946533203125,-0.02667236328125,-0.1951751708984375
1713449208650209500,8.22020947265625,-0.9756927490234375,-0.028656005859375,-0.19281005859375
1713449208660282400,8.230282470703125,-0.974365234375,-0.0294342041015625,-0.18994140625
1713449208670355200,8.240355224609376,-0.9794769287109375,-0.02752685546875,-0.192596435546875
1713449208680429600,8.2504296875,-0.9795074462890625,-0.027435302734375,-0.1917724609375
1713449208690502400,8.26050244140625,-0.9779815673828125,-0.02874755859375,-0.192108154296875
1713449208700575200,8.2705751953125,-0.97869873046875,-0.0281982421875,-0.1963958740234375
1713449208710648600,8.280648681640624,-0.980621337890625,-0.02880859375,-0.1971435546875
1713449208720722400,8.290722412109375,-0.9789581298828125,-0.02825927734375,-0.193450927734375
1713449208730795300,8.300795166015625,-0.9821624755859375,-0.0243072509765625,-0.1953125
1713449208740868400,8.310868408203126,-0.9811553955078125,-0.0265350341796875,-0.193878173828125
1713449208750941400,8.32094140625,-0.97296142578125,-0.0312042236328125,-0.194580078125
1713449208761015300,8.331015380859375,-0.9618072509765625,-0.032806396484375,-0.1929779052734375
1713449208771088400,8.34108837890625,-0.95855712890625,-0.0309295654296875,-0.1921539306640625
1713449208781161500,8.351161376953126,-0.9698486328125,-0.0301971435546875,-0.198486328125
1713449208791234600,8.361234619140625,-0.9785614013671875,-0.028289794921875,-0.202117919921875
1713449208801307400,8.371307373046875,-0.9794921875,-0.0277252197265625,-0.2006683349609375
1713449208811381200,8.38138134765625,-0.9725494384765625,-0.0300750732421875,-0.2013092041015625
1713449208821454600,8.39145458984375,-0.9649200439453125,-0.0316162109375,-0.2025299072265625
1713449208831527400,8.40152734375,-0.9686431884765625,-0.03277587890625,-0.2013397216796875
1713449208841600500,8.4116005859375,-0.975250244140625,-0.0335693359375,-0.200347900390625
1713449208851674400,8.42167431640625,-0.9802093505859375,-0.0318145751953125,-0.1975860595703125
1713449208861747500,8.43174755859375,-0.983978271484375,-0.0293121337890625,-0.197998046875
1713449208871820500,8.441820556640625,-0.989837646484375,-0.03204345703125,-0.19732666015625
1713449208881893400,8.451893310546875,-0.9931640625,-0.0316009521484375,-0.1996002197265625
1713449208891967500,8.461967529296874,-0.9971160888671875,-0.0325775146484375,-0.201568603515625
1713449208902040600,8.47204052734375,-0.9993896484375,-0.032318115234375,-0.200927734375
1713449208912113400,8.482113525390625,-1.0015106201171875,-0.032684326171875,-0.2000274658203125
1713449208922186500,8.4921865234375,-0.9976654052734375,-0.0331268310546875,-0.203643798828125
1713449208932259300,8.50225927734375,-0.999176025390625,-0.035552978515625,-0.205780029296875
1713449208942333400,8.51233349609375,-0.994903564453125,-0.0363616943359375,-0.2050018310546875
1713449208952406500,8.522406494140625,-0.9912872314453125,-0.0352783203125,-0.2034759521484375
1713449208962479400,8.532479248046876,-0.9831390380859375,-0.0356903076171875,-0.2050628662109375
1713449208972552400,8.542552490234375,-0.9769439697265625,-0.036407470703125,-0.2055511474609375
1713449208982626600,8.55262646484375,-0.9725341796875,-0.037078857421875,-0.2066802978515625
1713449208992699400,8.562699462890626,-0.96527099609375,-0.0378265380859375,-0.207122802734375
1713449209002772200,8.572772216796874,-0.9587554931640625,-0.0375213623046875,-0.2056427001953125
1713449209012845600,8.582845458984375,-0.956390380859375,-0.0403594970703125,-0.205718994140625
1713449209022919400,8.59291943359375,-0.9496002197265625,-0.0394744873046875,-0.202484130859375
1713449209032992300,8.6029921875,-0.944244384765625,-0.0385894775390625,-0.19927978515625
1713449209043065600,8.613065673828125,-0.9436798095703125,-0.036834716796875,-0.20208740234375
1713449209053138400,8.623138427734375,-0.946746826171875,-0.0363006591796875,-0.206817626953125
1713449209063211500,8.63321142578125,-0.9529571533203125,-0.034393310546875,-0.203369140625
1713449209073285400,8.643285400390624,-0.9571380615234375,-0.033294677734375,-0.204345703125
1713449209083358500,8.6533583984375,-0.95819091796875,-0.03509521484375,-0.2024993896484375
1713449209093431600,8.663431640625,-0.9582672119140625,-0.0369110107421875,-0.199493408203125
1713449209103504400,8.67350439453125,-0.9562530517578125,-0.038970947265625,-0.19598388671875
1713449209113578200,8.683578125,-0.962615966796875,-0.0369720458984375,-0.1918182373046875
1713449209123651600,8.693651611328125,-0.98291015625,-0.033477783203125,-0.1942901611328125
1713449209133724400,8.703724365234375,-1.0005035400390625,-0.0339202880859375,-0.1961212158203125
1713449209143797500,8.713797607421874,-1.0113525390625,-0.030517578125,-0.198822021484375
1713449209153871600,8.72387158203125,-1.0129241943359375,-0.028472900390625,-0.1986236572265625
1713449209163944400,8.7339443359375,-1.01043701171875,-0.0306396484375,-0.1958160400390625
1713449209174017500,8.744017578125,-1.0020599365234375,-0.0324554443359375,-0.1915740966796875
1713449209184090400,8.75409033203125,-0.986083984375,-0.0359344482421875,-0.191619873046875
1713449209194163200,8.7641630859375,-0.96990966796875,-0.036407470703125,-0.1893463134765625
1713449209204237600,8.774237548828125,-0.9779510498046875,-0.0390472412109375,-0.1884918212890625
1713449209214310400,8.784310302734376,-0.991973876953125,-0.0381927490234375,-0.188262939453125
1713449209224383200,8.79438330078125,-0.9899444580078125,-0.0305938720703125,-0.188385009765625
1713449209234456600,8.80445654296875,-0.9925537109375,-0.0258636474609375,-0.1937103271484375
1713449209244530400,8.814530517578126,-0.99896240234375,-0.033782958984375,-0.199462890625
1713449209254603300,8.824603271484374,-0.99713134765625,-0.03363037109375,-0.192291259765625
1713449209264676400,8.83467626953125,-0.9924774169921875,-0.0294189453125,-0.1865692138671875
1713449209274749400,8.84474951171875,-0.9862060546875,-0.0262451171875,-0.185272216796875
1713449209284822500,8.854822509765626,-0.98577880859375,-0.0280609130859375,-0.1842041015625
1713449209294896400,8.864896484375,-0.9829559326171875,-0.0307159423828125,-0.1800994873046875
1713449209304969500,8.874969482421875,-0.9798431396484375,-0.0382080078125,-0.1759033203125
1713449209315042600,8.88504248046875,-0.975830078125,-0.0405731201171875,-0.1808319091796875
1713449209325115400,8.895115478515624,-0.96820068359375,-0.042083740234375,-0.1875457763671875
1713449209335189200,8.905189208984375,-0.9604339599609375,-0.0436859130859375,-0.188873291015625
1713449209345262600,8.9152626953125,-0.9626312255859375,-0.04278564453125,-0.186737060546875
1713449209355335400,8.92533544921875,-0.9641571044921875,-0.0392608642578125,-0.190765380859375
1713449209365408500,8.935408447265624,-0.9703216552734375,-0.0375213623046875,-0.1920318603515625
1713449209375482400,8.945482421875,-0.9755706787109375,-0.037841796875,-0.1948089599609375
1713449209385555500,8.955555419921875,-0.98187255859375,-0.0386810302734375,-0.1970062255859375
1713449209395628500,8.965628662109374,-0.9831085205078125,-0.038848876953125,-0.1943359375
1713449209405701400,8.975701416015625,-0.98101806640625,-0.0348968505859375,-0.19427490234375
1713449209415774500,8.9857744140625,-0.9819183349609375,-0.033782958984375,-0.196807861328125
1713449209425848600,8.9958486328125,-0.982452392578125,-0.0343780517578125,-0.1967620849609375
1713449209435921400,9.00592138671875,-0.9776458740234375,-0.0391998291015625,-0.19659423828125
1713449209445994500,9.015994384765625,-0.97381591796875,-0.03985595703125,-0.195953369140625
1713449209456067300,9.0260673828125,-0.9766693115234375,-0.0383758544921875,-0.1964569091796875
1713449209466141400,9.036141357421876,-0.98028564453125,-0.03704833984375,-0.1967010498046875
1713449209476214500,9.046214599609375,-0.9854736328125,-0.0378875732421875,-0.1946868896484375
1713449209486287400,9.056287353515625,-0.985260009765625,-0.0364837646484375,-0.1949615478515625
1713449209496360400,9.0663603515625,-0.9884033203125,-0.035919189453125,-0.1945648193359375
1713449209506434600,9.0764345703125,-0.9893798828125,-0.0360260009765625,-0.1931915283203125
1713449209516507400,9.08650732421875,-0.9882049560546875,-0.0356292724609375,-0.1959991455078125
1713449209526580200,9.096580322265625,-0.984283447265625,-0.0381011962890625,-0.1923828125
1713449209536653600,9.106653564453126,-0.9771728515625,-0.041778564453125,-0.192901611328125
1713449209546727400,9.1167275390625,-0.9781494140625,-0.0383758544921875,-0.1907196044921875
1713449209556800300,9.12680029296875,-0.97979736328125,-0.037872314453125,-0.1884918212890625
1713449209566873600,9.13687353515625,-0.9800262451171875,-0.037139892578125,-0.1880340576171875
1713449209576946400,9.146946533203124,-0.979949951171875,-0.0373077392578125,-0.18841552734375
1713449209587019500,9.15701953125,-0.9811859130859375,-0.0365142822265625,-0.18865966796875
1713449209597093400,9.16709326171875,-0.982330322265625,-0.0382843017578125,-0.189239501953125
1713449209607166500,9.17716650390625,-0.9858245849609375,-0.0342864990234375,-0.1882476806640625
1713449209617239600,9.187239501953124,-0.9857330322265625,-0.035736083984375,-0.1870880126953125
1713449209627312400,9.1973125,-0.983673095703125,-0.0389556884765625,-0.1875457763671875
1713449209637386200,9.20738623046875,-0.98046875,-0.0401763916015625,-0.18841552734375
1713449209647459800,9.2174599609375,-0.970245361328125,-0.038543701171875,-0.1894378662109375
1713449209657532700,9.22753271484375,-0.9675750732421875,-0.0387725830078125,-0.1866455078125
1713449209667605800,9.237605712890625,-0.967987060546875,-0.0366363525390625,-0.1864776611328125
1713449209677679900,9.247679931640626,-0.968505859375,-0.0351715087890625,-0.192230224609375
1713449209687752700,9.257752685546874,-0.9698944091796875,-0.0352630615234375,-0.1906280517578125
1713449209697825800,9.26782568359375,-0.9715423583984375,-0.03558349609375,-0.1902618408203125
1713449209707899000,9.27789892578125,-0.9750823974609375,-0.0356292724609375,-0.192352294921875
1713449209717971700,9.2879716796875,-0.9806060791015625,-0.0360565185546875,-0.1915283203125
1713449209728045800,9.2980458984375,-0.979736328125,-0.038482666015625,-0.19354248046875
1713449209738118700,9.30811865234375,-0.981842041015625,-0.0367279052734375,-0.1919097900390625
1713449209748191700,9.318191650390625,-0.98248291015625,-0.037322998046875,-0.1905670166015625
1713449209758264800,9.328264892578124,-0.9851531982421875,-0.03643798828125,-0.1919403076171875
1713449209768338700,9.338338623046875,-0.9859466552734375,-0.036895751953125,-0.1919708251953125
1713449209778411800,9.348411865234375,-0.985321044921875,-0.0365142822265625,-0.1910858154296875
1713449209788484900,9.35848486328125,-0.9864654541015625,-0.0359039306640625,-0.19195556640625
1713449209798557700,9.3685576171875,-0.9891357421875,-0.03643798828125,-0.1907501220703125
1713449209808631600,9.378631591796875,-0.98785400390625,-0.0358734130859375,-0.19024658203125
1713449209818705000,9.388704833984375,-0.98577880859375,-0.0378875732421875,-0.1909332275390625
1713449209828777700,9.39877783203125,-0.9844207763671875,-0.038238525390625,-0.1885986328125
1713449209838850800,9.408850830078125,-0.978607177734375,-0.038116455078125,-0.1878662109375
1713449209848923600,9.418923583984375,-0.9764404296875,-0.03643798828125,-0.1874542236328125
1713449209858997800,9.428997802734376,-0.9747772216796875,-0.0386810302734375,-0.1884002685546875
1713449209869070800,9.43907080078125,-0.973297119140625,-0.038421630859375,-0.1855621337890625
1713449209879143700,9.449143798828125,-0.9699249267578125,-0.0365753173828125,-0.1858062744140625
1713449209889216800,9.459216796875,-0.9687652587890625,-0.0380401611328125,-0.186614990234375
1713449209899291000,9.469290771484374,-0.9698944091796875,-0.036773681640625,-0.185638427734375
1713449209909363700,9.47936376953125,-0.969207763671875,-0.0391845703125,-0.1848602294921875
1713449209919436800,9.489436767578125,-0.9730987548828125,-0.037933349609375,-0.1832733154296875
1713449209929510000,9.499510009765626,-0.9749603271484375,-0.0368499755859375,-0.18536376953125
1713449209939583700,9.509583740234374,-0.9797515869140625,-0.0361480712890625,-0.1848297119140625
1713449209949656800,9.51965673828125,-0.9810028076171875,-0.036224365234375,-0.18658447265625
1713449209959729700,9.529729736328125,-0.9837646484375,-0.0338134765625,-0.18609619140625
1713449209969802800,9.539802734375,-0.984832763671875,-0.0356903076171875,-0.1886138916015625
1713449209979875800,9.549875732421874,-0.986083984375,-0.0350189208984375,-0.18792724609375
1713449209989949700,9.55994970703125,-0.9863128662109375,-0.034271240234375,-0.1876983642578125
1713449210000022500,9.5700224609375,-0.9873809814453125,-0.03436279296875,-0.1857452392578125
1713449210010095900,9.580095947265624,-0.989501953125,-0.0345306396484375,-0.187286376953125
1713449210020168700,9.590168701171875,-0.98626708984375,-0.03662109375,-0.1885528564453125
1713449210030242600,9.60024267578125,-0.98468017578125,-0.0361175537109375,-0.1868133544921875
1713449210040316000,9.61031591796875,-0.9856109619140625,-0.0359649658203125,-0.1846771240234375
1713449210050388700,9.620388671875,-0.9806976318359375,-0.0388946533203125,-0.1858367919921875
1713449210060461800,9.6304619140625,-0.9780426025390625,-0.0391082763671875,-0.187103271484375
1713449210070535700,9.64053564453125,-0.97723388671875,-0.037933349609375,-0.1865386962890625
1713449210080608800,9.65060888671875,-0.975738525390625,-0.040496826171875,-0.1844482421875
1713449210090681900,9.660681884765625,-0.9752197265625,-0.039581298828125,-0.1847686767578125
1713449210100754700,9.670754638671875,-0.978546142578125,-0.03863525390625,-0.18365478515625
1713449210110827800,9.680827880859376,-0.9816131591796875,-0.0370635986328125,-0.184783935546875
1713449210120902000,9.69090185546875,-0.9818572998046875,-0.037384033203125,-0.1835784912109375
1713449210130974700,9.700974609375,-0.9848175048828125,-0.0378570556640625,-0.183746337890625
1713449210141047800,9.7110478515625,-0.9854278564453125,-0.0384063720703125,-0.1845550537109375
1713449210151120600,9.72112060546875,-0.98309326171875,-0.038604736328125,-0.184906005859375
1713449210161194800,9.73119482421875,-0.984375,-0.0360870361328125,-0.1838836669921875
1713449210171267800,9.741267822265625,-0.9828948974609375,-0.0351104736328125,-0.18426513671875
1713449210181340700,9.751340576171875,-0.980926513671875,-0.03704833984375,-0.1858978271484375
1713449210191413800,9.761413818359374,-0.9807281494140625,-0.0379791259765625,-0.1859588623046875
1713449210201488000,9.77148779296875,-0.9780731201171875,-0.0370635986328125,-0.1843719482421875
1713449210211560700,9.781560791015625,-0.977691650390625,-0.03741455078125,-0.1829071044921875
1713449210221633800,9.7916337890625,-0.9802093505859375,-0.03900146484375,-0.184295654296875
1713449210231707000,9.801706787109374,-0.9798736572265625,-0.0406036376953125,-0.1850128173828125
1713449210241779700,9.81177978515625,-0.979248046875,-0.0369873046875,-0.18304443359375
1713449210251853800,9.821853759765625,-0.9765472412109375,-0.040191650390625,-0.183990478515625
1713449210261926700,9.8319267578125,-0.976226806640625,-0.0390625,-0.1824493408203125
1713449210271999700,9.841999755859375,-0.9758453369140625,-0.0398101806640625,-0.1830291748046875
1713449210282072800,9.85207275390625,-0.9753875732421875,-0.03900146484375,-0.182708740234375
1713449210292146700,9.862146728515626,-0.980224609375,-0.039093017578125,-0.1834564208984375
1713449210302219800,9.8722197265625,-0.9830474853515625,-0.040496826171875,-0.18414306640625
1713449210312292900,9.88229296875,-0.9844207763671875,-0.0397186279296875,-0.185577392578125
1713449210322365700,9.89236572265625,-0.9866180419921875,-0.037261962890625,-0.1853485107421875
1713449210332439600,9.902439453125,-0.9864044189453125,-0.0385284423828125,-0.18524169921875
1713449210342513000,9.912512939453125,-0.98126220703125,-0.04022216796875,-0.1846923828125
1713449210352585700,9.922585693359375,-0.982879638671875,-0.0396270751953125,-0.1833953857421875
1713449210362658800,9.932658935546876,-0.9844818115234375,-0.03680419921875,-0.183837890625
1713449210372731600,9.942731689453124,-0.984527587890625,-0.03814697265625,-0.1850738525390625
1713449210382805800,9.9528056640625,-0.98419189453125,-0.040740966796875,-0.183563232421875
1713449210392878800,9.96287890625,-0.9811553955078125,-0.0440216064453125,-0.1841278076171875
1713449210402951700,9.97295166015625,-0.9804534912109375,-0.041839599609375,-0.1849365234375
1713449210413024800,9.983024658203124,-0.9806976318359375,-0.042083740234375,-0.18438720703125
1713449210423099000,9.993098876953125,-0.979888916015625,-0.0465545654296875,-0.182342529296875
1713449210433171700,10.003171630859375,-0.9793853759765625,-0.0453643798828125,-0.1815185546875
1713449210443244800,10.013244873046874,-0.979522705078125,-0.0463104248046875,-0.1816558837890625
1713449210453318000,10.02331787109375,-0.9774169921875,-0.0467529296875,-0.1805419921875
1713449210463391700,10.033391845703125,-0.977813720703125,-0.0440521240234375,-0.1817474365234375
1713449210473464800,10.04346484375,-0.979949951171875,-0.0430755615234375,-0.181793212890625
1713449210483537700,10.05353759765625,-0.9784698486328125,-0.0397796630859375,-0.1807861328125
1713449210493610800,10.06361083984375,-0.979217529296875,-0.0393829345703125,-0.181182861328125
1713449210503684900,10.073684814453125,-0.9788970947265625,-0.0396575927734375,-0.184539794921875
1713449210513757700,10.0837578125,-0.98052978515625,-0.04046630859375,-0.1840667724609375
1713449210523830500,10.09383056640625,-0.98101806640625,-0.0428619384765625,-0.1825714111328125
1713449210533904000,10.10390380859375,-0.98193359375,-0.0440673828125,-0.179656982421875
1713449210543976700,10.113976806640625,-0.9816436767578125,-0.043060302734375,-0.179901123046875
1713449210554050600,10.124050537109374,-0.9798583984375,-0.0420989990234375,-0.1799468994140625
1713449210564124000,10.1341240234375,-0.9809417724609375,-0.0390472412109375,-0.1792449951171875
1713449210574196700,10.14419677734375,-0.9847869873046875,-0.04034423828125,-0.178741455078125
1713449210584269800,10.154269775390626,-0.98681640625,-0.04083251953125,-0.1777801513671875
1713449210594343700,10.16434375,-0.988677978515625,-0.041290283203125,-0.1783447265625
1713449210604416800,10.174416748046875,-0.9870758056640625,-0.04254150390625,-0.1776580810546875
1713449210614489900,10.18448974609375,-0.9830474853515625,-0.0435791015625,-0.1777496337890625
1713449210624562700,10.194562744140624,-0.9825286865234375,-0.0433349609375,-0.1786956787109375
1713449210634636800,10.20463671875,-0.977203369140625,-0.044464111328125,-0.1791534423828125
1713449210644709400,10.21470947265625,-0.965545654296875,-0.046783447265625,-0.1778411865234375
1713449210654782200,10.2247822265625,-0.9670257568359375,-0.0427093505859375,-0.1787567138671875
1713449210664855600,10.23485546875,-0.9725189208984375,-0.0419769287109375,-0.18157958984375
1713449210674928400,10.244928466796875,-0.9861297607421875,-0.041656494140625,-0.18133544921875
1713449210685002200,10.255002197265625,-0.9962158203125,-0.040802001953125,-0.1780853271484375
1713449210695075300,10.265075439453126,-0.997314453125,-0.0433197021484375,-0.177734375
1713449210705148400,10.2751484375,-0.9977264404296875,-0.045318603515625,-0.1803436279296875
1713449210715221500,10.285221435546875,-0.9970550537109375,-0.045654296875,-0.1823272705078125
1713449210725295400,10.29529541015625,-0.9875030517578125,-0.048797607421875,-0.1855621337890625
1713449210735368400,10.305368408203124,-0.9788055419921875,-0.05096435546875,-0.1865386962890625
1713449210745441500,10.315441650390625,-0.980255126953125,-0.04876708984375,-0.1844482421875
1713449210755514400,10.325514404296875,-0.9824066162109375,-0.0494842529296875,-0.183624267578125
1713449210765588200,10.335588134765626,-0.9836578369140625,-0.0518798828125,-0.182342529296875
1713449210775661600,10.34566162109375,-0.9835662841796875,-0.051177978515625,-0.1815948486328125
1713449210785734400,10.355734375,-0.9793548583984375,-0.0513153076171875,-0.1799163818359375
1713449210795807500,10.365807373046875,-0.9806060791015625,-0.0521392822265625,-0.1801605224609375
1713449210805880300,10.37588037109375,-0.977203369140625,-0.0532073974609375,-0.18145751953125
1713449210815954400,10.385954345703125,-0.9744415283203125,-0.0532684326171875,-0.18353271484375
1713449210826027500,10.396027587890625,-0.9733123779296875,-0.0518341064453125,-0.186737060546875
1713449210836100400,10.406100341796876,-0.96990966796875,-0.050750732421875,-0.187469482421875
1713449210846173200,10.416173095703124,-0.970001220703125,-0.0502166748046875,-0.184661865234375
1713449210856247600,10.42624755859375,-0.973907470703125,-0.0511627197265625,-0.1857147216796875
1713449210866320400,10.4363203125,-0.977874755859375,-0.0522308349609375,-0.1866912841796875
1713449210876393200,10.446393310546876,-0.979095458984375,-0.0484771728515625,-0.1904296875
1713449210886466600,10.456466552734375,-0.98138427734375,-0.04803466796875,-0.19122314453125
1713449210896540400,10.46654052734375,-0.980987548828125,-0.0517578125,-0.191986083984375
1713449210906613200,10.47661328125,-0.9761810302734375,-0.0500946044921875,-0.1899871826171875
1713449210916686300,10.486686279296874,-0.9768218994140625,-0.0508880615234375,-0.1897735595703125
1713449210926759400,10.496759521484375,-0.9807586669921875,-0.048370361328125,-0.1899871826171875
1713449210936833300,10.506833251953125,-0.981842041015625,-0.0496673583984375,-0.19171142578125
1713449210946906400,10.51690625,-0.982757568359375,-0.0482330322265625,-0.19085693359375
1713449210956979200,10.526979248046874,-0.987548828125,-0.047760009765625,-0.19189453125
1713449210967052500,10.537052490234375,-0.9881591796875,-0.0496368408203125,-0.191925048828125
1713449210977125400,10.54712548828125,-0.9809722900390625,-0.0539703369140625,-0.1948089599609375
1713449210987199200,10.55719921875,-0.974822998046875,-0.053741455078125,-0.1945343017578125
1713449210997272600,10.5672724609375,-0.9780731201171875,-0.0527191162109375,-0.196197509765625
1713449211007345400,10.577345458984375,-0.9820556640625,-0.053680419921875,-0.194000244140625
1713449211017418500,10.58741845703125,-0.9813079833984375,-0.0545654296875,-0.1929931640625
1713449211027492400,10.597492431640624,-0.977813720703125,-0.055755615234375,-0.192962646484375
1713449211037565400,10.6075654296875,-0.9719696044921875,-0.0552978515625,-0.19403076171875
1713449211047638500,10.617638427734375,-0.9738006591796875,-0.0542144775390625,-0.1950836181640625
1713449211057711400,10.62771142578125,-0.966552734375,-0.0536651611328125,-0.1950225830078125
1713449211067785500,10.637785400390625,-0.9622344970703125,-0.05523681640625,-0.19439697265625
1713449211077858600,10.647858642578125,-0.9622344970703125,-0.056243896484375,-0.1932373046875
1713449211087931400,10.657931396484376,-0.9664306640625,-0.05352783203125,-0.195587158203125
1713449211098004200,10.668004150390624,-0.9627532958984375,-0.055084228515625,-0.19439697265625
1713449211108078600,10.67807861328125,-0.962554931640625,-0.0542449951171875,-0.195831298828125
1713449211118151400,10.6881513671875,-0.96826171875,-0.0533599853515625,-0.190673828125
1713449211128224300,10.698224365234376,-0.9706878662109375,-0.0536346435546875,-0.1921844482421875
1713449211138297300,10.70829736328125,-0.973236083984375,-0.052642822265625,-0.1951446533203125
1713449211148370400,10.718370361328125,-0.9744873046875,-0.05255126953125,-0.1999969482421875
1713449211158444300,10.7284443359375,-0.96923828125,-0.05328369140625,-0.20037841796875
1713449211168517400,10.738517333984374,-0.97454833984375,-0.051910400390625,-0.197113037109375
1713449211178590200,10.748590087890625,-0.9797515869140625,-0.048431396484375,-0.195343017578125
1713449211188663600,10.75866357421875,-0.9848480224609375,-0.0475921630859375,-0.1947021484375
1713449211198737400,10.7687373046875,-0.9879150390625,-0.04791259765625,-0.193603515625
1713449211208810200,10.778810302734374,-0.9955902099609375,-0.0479888916015625,-0.1942138671875
1713449211218883300,10.78888330078125,-1.0016632080078125,-0.0506744384765625,-0.1958465576171875
1713449211228956400,10.798956298828125,-1.0030670166015625,-0.05340576171875,-0.1944427490234375
1713449211239030300,10.8090302734375,-1.0004730224609375,-0.0578155517578125,-0.1924591064453125
1713449211249103400,10.819103271484375,-0.998291015625,-0.0599212646484375,-0.192169189453125
1713449211259176400,10.829176513671875,-0.9881744384765625,-0.062103271484375,-0.1956787109375
1713449211269249500,10.83924951171875,-0.982208251953125,-0.064788818359375,-0.196624755859375
1713449211279322400,10.849322265625,-0.982025146484375,-0.06207275390625,-0.189971923828125
1713449211289396200,10.859396240234375,-0.97906494140625,-0.0614013671875,-0.191497802734375
1713449211299469600,10.869469482421875,-0.9772491455078125,-0.0612335205078125,-0.1901702880859375
1713449211309542400,10.87954248046875,-0.9714813232421875,-0.061920166015625,-0.18994140625
1713449211319615500,10.889615478515625,-0.9635009765625,-0.0623016357421875,-0.193206787109375
1713449211329689600,10.899689697265625,-0.9535675048828125,-0.0651397705078125,-0.1914520263671875
1713449211339762400,10.909762451171876,-0.95245361328125,-0.0631103515625,-0.1900482177734375
1713449211349835500,10.91983544921875,-0.9547271728515625,-0.0592803955078125,-0.1905059814453125
1713449211359908400,10.929908447265625,-0.9560546875,-0.055755615234375,-0.1955413818359375
1713449211369982500,10.939982421875,-0.9535369873046875,-0.055084228515625,-0.198486328125
1713449211380055600,10.9500556640625,-0.9650115966796875,-0.0556182861328125,-0.1998138427734375
1713449211390128400,10.96012841796875,-0.9736328125,-0.0540008544921875,-0.19927978515625
1713449211400201200,10.970201171875,-0.9755706787109375,-0.052001953125,-0.1993865966796875
1713449211410275600,10.980275634765626,-0.9782562255859375,-0.05224609375,-0.1954345703125
1713449211420348400,10.990348388671874,-0.9814300537109375,-0.051055908203125,-0.19146728515625
1713449211430421200,11.000421142578125,-0.9820556640625,-0.0518341064453125,-0.1866912841796875
1713449211440494300,11.010494384765625,-0.9863128662109375,-0.0495758056640625,-0.1847991943359375
1713449211450567400,11.0205673828125,-0.9963836669921875,-0.0489959716796875,-0.1829376220703125
1713449211460641300,11.030641357421874,-1.0046844482421875,-0.0504150390625,-0.1795654296875
1713449211470714400,11.04071435546875,-1.0085296630859375,-0.0521240234375,-0.1792449951171875
1713449211480787200,11.050787109375,-1.004364013671875,-0.05340576171875,-0.184234619140625
1713449211490860500,11.060860595703126,-0.99505615234375,-0.0522613525390625,-0.184234619140625
1713449211500934400,11.070934326171875,-0.98992919921875,-0.0548248291015625,-0.1783294677734375
1713449211511007200,11.08100732421875,-0.9842681884765625,-0.05340576171875,-0.1766357421875
1713449211521080600,11.09108056640625,-0.979888916015625,-0.0541534423828125,-0.1773223876953125
1713449211531153400,11.1011533203125,-0.981475830078125,-0.05584716796875,-0.1754302978515625
1713449211541227300,11.111227294921875,-0.978973388671875,-0.0561370849609375,-0.178802490234375
1713449211551300400,11.12130029296875,-0.97064208984375,-0.0540313720703125,-0.1836395263671875
1713449211561373400,11.13137353515625,-0.970458984375,-0.0529327392578125,-0.1856842041015625
1713449211571446500,11.141446533203125,-0.97528076171875,-0.053558349609375,-0.1842803955078125
1713449211581520400,11.151520263671875,-0.9770660400390625,-0.052734375,-0.1828155517578125
1713449211591593500,11.161593505859376,-0.978363037109375,-0.0504913330078125,-0.1824798583984375
1713449211601666600,11.17166650390625,-0.9810333251953125,-0.0500640869140625,-0.1845703125
1713449211611739400,11.181739501953125,-0.9830322265625,-0.050018310546875,-0.182861328125
1713449211621812200,11.191812255859375,-0.9825286865234375,-0.04931640625,-0.1847686767578125
1713449211631886600,11.201886474609376,-0.978729248046875,-0.0455780029296875,-0.189727783203125
1713449211641959400,11.21195947265625,-0.97650146484375,-0.046875,-0.1861572265625
1713449211652033000,11.222032958984375,-0.9765472412109375,-0.048004150390625,-0.1811370849609375
1713449211662106000,11.232106201171876,-0.974090576171875,-0.04730224609375,-0.1815643310546875
1713449211672180000,11.242179931640624,-0.9721832275390625,-0.045989990234375,-0.183197021484375
1713449211682253000,11.252253173828125,-0.9721527099609375,-0.0441131591796875,-0.187530517578125
1713449211692326100,11.262326171875,-0.977783203125,-0.0457000732421875,-0.182220458984375
1713449211702399000,11.27239892578125,-0.986480712890625,-0.0458831787109375,-0.1832427978515625
1713449211712472800,11.282472900390625,-0.990142822265625,-0.04522705078125,-0.182769775390625
1713449211722546200,11.292546142578125,-0.9924163818359375,-0.0473480224609375,-0.181640625
1713449211732619000,11.302618896484375,-0.9886932373046875,-0.049560546875,-0.1806182861328125
1713449211742692000,11.312692138671874,-0.9798583984375,-0.0506744384765625,-0.179229736328125
1713449211752766200,11.32276611328125,-0.971588134765625,-0.0510711669921875,-0.1760101318359375
1713449211762839000,11.332839111328125,-0.9726409912109375,-0.052581787109375,-0.1768798828125
1713449211772912000,11.342912109375,-0.976837158203125,-0.0506439208984375,-0.18145751953125
1713449211782985000,11.35298486328125,-0.9752197265625,-0.0493011474609375,-0.18072509765625
1713449211793057800,11.363057861328125,-0.9736175537109375,-0.0489501953125,-0.1795654296875
1713449211803132200,11.373132080078125,-0.9759368896484375,-0.0476226806640625,-0.17864990234375
1713449211813205000,11.383205078125,-0.97747802734375,-0.0479583740234375,-0.1776885986328125
1713449211823277800,11.39327783203125,-0.9836883544921875,-0.0475006103515625,-0.176788330078125
1713449211833351000,11.403350830078125,-0.98944091796875,-0.0468292236328125,-0.1795806884765625
1713449211843425000,11.413425048828126,-0.9932098388671875,-0.0432281494140625,-0.181976318359375
1713449211853497900,11.423497802734374,-0.993896484375,-0.0428924560546875,-0.1831817626953125
1713449211863571000,11.433571044921875,-0.9922637939453125,-0.041839599609375,-0.1864471435546875
1713449211873644000,11.44364404296875,-0.994049072265625,-0.040740966796875,-0.190338134765625
1713449211883718000,11.4537177734375,-0.99176025390625,-0.04034423828125,-0.18963623046875
1713449211893791000,11.463791015625,-0.9886627197265625,-0.039886474609375,-0.1830291748046875
1713449211903863800,11.47386376953125,-0.981689453125,-0.0417938232421875,-0.1778717041015625
1713449211913937200,11.483937255859376,-0.9774169921875,-0.039642333984375,-0.180450439453125
1713449211924010000,11.494010009765624,-0.976531982421875,-0.0385894775390625,-0.1797027587890625
1713449211934083800,11.504083740234375,-0.9784698486328125,-0.0387725830078125,-0.1786956787109375
1713449211944157200,11.5141572265625,-0.9813385009765625,-0.039306640625,-0.1815185546875
1713449211954230000,11.52422998046875,-0.9808807373046875,-0.040557861328125,-0.1831512451171875
1713449211964303000,11.53430322265625,-0.98126220703125,-0.0421600341796875,-0.18341064453125
1713449211974377000,11.544376953125,-0.9799041748046875,-0.0460052490234375,-0.182647705078125
1713449211984450000,11.554449951171875,-0.97515869140625,-0.047210693359375,-0.1810150146484375
1713449211994523100,11.564523193359374,-0.97772216796875,-0.045562744140625,-0.17938232421875
1713449212004596000,11.574595947265625,-0.978912353515625,-0.0457763671875,-0.1837615966796875
1713449212014670000,11.584670166015625,-0.979339599609375,-0.044525146484375,-0.185302734375
1713449212024743200,11.5947431640625,-0.9784088134765625,-0.04443359375,-0.1864166259765625
1713449212034816000,11.60481591796875,-0.9800262451171875,-0.0446929931640625,-0.186248779296875
1713449212044889000,11.61488916015625,-0.98260498046875,-0.04461669921875,-0.1839752197265625
1713449212054963200,11.624963134765625,-0.98028564453125,-0.0422821044921875,-0.1858673095703125
1713449212065036000,11.6350361328125,-0.978179931640625,-0.04327392578125,-0.1848297119140625
1713449212075109000,11.645109130859375,-0.9809417724609375,-0.0424041748046875,-0.1853485107421875
1713449212085182000,11.655181884765625,-0.978546142578125,-0.0439453125,-0.185089111328125
1713449212095256000,11.665256103515626,-0.9761962890625,-0.0443878173828125,-0.187042236328125
1713449212105329200,11.6753291015625,-0.9754791259765625,-0.0430450439453125,-0.1861419677734375
1713449212115402000,11.685402099609375,-0.9793243408203125,-0.0413970947265625,-0.1849822998046875
1713449212125474800,11.695474853515625,-0.9813232421875,-0.0430450439453125,-0.1853179931640625
1713449212135548200,11.705548095703126,-0.979583740234375,-0.041412353515625,-0.1847686767578125
1713449212145622000,11.7156220703125,-0.9811248779296875,-0.040618896484375,-0.182708740234375
1713449212155694800,11.72569482421875,-0.982086181640625,-0.040008544921875,-0.18182373046875
1713449212165768000,11.735767822265625,-0.9844207763671875,-0.040130615234375,-0.1811370849609375
1713449212175841000,11.745841064453124,-0.9861297607421875,-0.0409393310546875,-0.182891845703125
1713449212185915000,11.755914794921875,-0.985992431640625,-0.0402374267578125,-0.182098388671875
1713449212195988000,11.765988037109375,-0.984375,-0.039520263671875,-0.1832275390625
1713449212206061000,11.77606103515625,-0.9815673828125,-0.0388031005859375,-0.18408203125
1713449212216134100,11.786134033203124,-0.9837646484375,-0.0410308837890625,-0.1822357177734375
1713449212226208000,11.7962080078125,-0.9836578369140625,-0.0421295166015625,-0.185150146484375
1713449212236280800,11.80628076171875,-0.9813385009765625,-0.043060302734375,-0.1845703125
1713449212246354200,11.816354248046874,-0.97906494140625,-0.043060302734375,-0.181304931640625
1713449212256427000,11.826427001953125,-0.976654052734375,-0.041778564453125,-0.1798553466796875
1713449212266500900,11.8365009765625,-0.9731903076171875,-0.0400390625,-0.1822509765625
1713449212276574200,11.84657421875,-0.9730682373046875,-0.0391082763671875,-0.1803131103515625
1713449212286647000,11.85664697265625,-0.975799560546875,-0.03851318359375,-0.1790924072265625
1713449212296720100,11.86672021484375,-0.978424072265625,-0.03759765625,-0.1794281005859375
1713449212306793000,11.87679296875,-0.9796905517578125,-0.03680419921875,-0.1788482666015625
1713449212316867000,11.8868671875,-0.9797210693359375,-0.0364990234375,-0.1819610595703125
1713449212326940200,11.896940185546875,-0.9804229736328125,-0.037567138671875,-0.183319091796875
1713449212337013000,11.907012939453125,-0.9809112548828125,-0.038818359375,-0.18487548828125
1713449212347086000,11.917086181640625,-0.9827117919921875,-0.0379180908203125,-0.183319091796875
1713449212357160200,11.92716015625,-0.983489990234375,-0.0355224609375,-0.181884765625
1713449212367233000,11.93723291015625,-0.98297119140625,-0.0366668701171875,-0.1812591552734375
1713449212377306000,11.94730615234375,-0.9822540283203125,-0.0388641357421875,-0.1781463623046875
1713449212387379000,11.95737890625,-0.9828948974609375,-0.036529541015625,-0.1790618896484375
1713449212397453000,11.967453125,-0.9866180419921875,-0.035614013671875,-0.1820220947265625
1713449212407526100,11.977526123046875,-0.9900360107421875,-0.036163330078125,-0.1808319091796875
1713449212417599000,11.987598876953125,-0.9943084716796875,-0.0386505126953125,-0.1815338134765625
1713449212427671800,11.997671875,-0.993438720703125,-0.03704833984375,-0.1807098388671875
1713449212437745200,12.0077451171875,-0.99090576171875,-0.0362548828125,-0.1826934814453125
1713449212447819000,12.017819091796875,-0.9881439208984375,-0.0375213623046875,-0.182403564453125
1713449212457891800,12.027891845703126,-0.981781005859375,-0.0402984619140625,-0.1846160888671875
1713449212467965200,12.037965087890624,-0.9776458740234375,-0.0411834716796875,-0.1819610595703125
1713449212478038000,12.0480380859375,-0.981353759765625,-0.038177490234375,-0.1800689697265625
1713449212488111900,12.05811181640625,-0.98065185546875,-0.0384674072265625,-0.183380126953125
1713449212498185000,12.06818505859375,-0.97540283203125,-0.0394287109375,-0.1847076416015625
1713449212508258000,12.078258056640625,-0.972991943359375,-0.04052734375,-0.1847686767578125
1713449212518331100,12.0883310546875,-0.969085693359375,-0.038909912109375,-0.1819305419921875
1713449212528405000,12.098405029296876,-0.969757080078125,-0.0369415283203125,-0.1839141845703125
1713449212538477800,12.108477783203124,-0.969573974609375,-0.03924560546875,-0.18359375
1713449212548551200,12.11855126953125,-0.971221923828125,-0.0406036376953125,-0.18231201171875
1713449212558624000,12.1286240234375,-0.9746246337890625,-0.03961181640625,-0.1832122802734375
1713449212568697900,12.13869775390625,-0.9770660400390625,-0.04010009765625,-0.184326171875
1713449212578771200,12.148771240234375,-0.97723388671875,-0.040130615234375,-0.1865081787109375
1713449212588844000,12.158843994140625,-0.9775543212890625,-0.0386505126953125,-0.186767578125
1713449212598917000,12.168917236328125,-0.9788818359375,-0.0394744873046875,-0.1849212646484375
1713449212608991000,12.178990966796874,-0.97760009765625,-0.0413970947265625,-0.18389892578125
1713449212619064000,12.18906396484375,-0.9781646728515625,-0.041778564453125,-0.1838836669921875
1713449212629137200,12.19913720703125,-0.9781494140625,-0.040924072265625,-0.1859588623046875
1713449212639210000,12.2092099609375,-0.978973388671875,-0.03887939453125,-0.1861114501953125
1713449212649282300,12.2192822265625,-0.9812164306640625,-0.03656005859375,-0.1858062744140625
1713449212659356200,12.229356201171875,-0.9849395751953125,-0.0359649658203125,-0.1895599365234375
1713449212669429000,12.239428955078125,-0.9898681640625,-0.03570556640625,-0.1893310546875
1713449212679502300,12.24950244140625,-0.9915008544921875,-0.0358734130859375,-0.18695068359375
1713449212689575200,12.2595751953125,-0.9896240234375,-0.0345458984375,-0.1851959228515625
1713449212699649000,12.26964892578125,-0.986907958984375,-0.0347137451171875,-0.18304443359375
1713449212709722000,12.27972216796875,-0.9853363037109375,-0.035797119140625,-0.1824798583984375
1713449212719795200,12.289795166015624,-0.982177734375,-0.0380401611328125,-0.182647705078125
1713449212729868300,12.299868408203125,-0.979522705078125,-0.0384063720703125,-0.180145263671875
1713449212739942100,12.309942138671875,-0.9796295166015625,-0.0357818603515625,-0.18060302734375
1713449212750015200,12.32001513671875,-0.9800262451171875,-0.0359344482421875,-0.179595947265625
1713449212760088300,12.33008837890625,-0.98175048828125,-0.0361785888671875,-0.1783599853515625
1713449212770161200,12.3401611328125,-0.9728240966796875,-0.036865234375,-0.178985595703125
1713449212780235000,12.350235107421875,-0.9728240966796875,-0.036895751953125,-0.178375244140625
1713449212790308400,12.360308349609374,-0.9750518798828125,-0.03558349609375,-0.178253173828125
1713449212800381200,12.370381103515625,-0.9754791259765625,-0.0370025634765625,-0.180450439453125
1713449212810454000,12.3804541015625,-0.978546142578125,-0.0369110107421875,-0.1826629638671875
1713449212820528000,12.390528076171876,-0.9793853759765625,-0.0362396240234375,-0.184814453125
1713449212830601200,12.400601318359374,-0.9815216064453125,-0.0365753173828125,-0.183990478515625
1713449212840674000,12.410674072265625,-0.980987548828125,-0.0372161865234375,-0.1829833984375
1713449212850747100,12.4207470703125,-0.980316162109375,-0.0378265380859375,-0.18426513671875
1713449212860820000,12.430820068359376,-0.9813232421875,-0.038330078125,-0.182830810546875
1713449212870894000,12.44089404296875,-0.9823760986328125,-0.0361785888671875,-0.1823577880859375
1713449212880967200,12.45096728515625,-0.9834747314453125,-0.0347442626953125,-0.1847686767578125
1713449212891040000,12.4610400390625,-0.986236572265625,-0.0343017578125,-0.1845855712890625
1713449212901113000,12.471113037109374,-0.987548828125,-0.0338897705078125,-0.1856842041015625
1713449212911187200,12.481187255859375,-0.987152099609375,-0.0341796875,-0.18621826171875
1713449212921260000,12.491260009765625,-0.9866180419921875,-0.034637451171875,-0.185791015625
1713449212931333000,12.5013330078125,-0.9857940673828125,-0.0369110107421875,-0.1844482421875
1713449212941406200,12.51140625,-0.9828948974609375,-0.03533935546875,-0.181793212890625
1713449212951480000,12.52147998046875,-0.982757568359375,-0.0329742431640625,-0.1835479736328125
1713449212961553200,12.53155322265625,-0.98309326171875,-0.034454345703125,-0.180572509765625
1713449212971626000,12.5416259765625,-0.981689453125,-0.03436279296875,-0.1793212890625
1713449212981699300,12.55169921875,-0.9794464111328125,-0.0364227294921875,-0.1786651611328125
1713449212991773200,12.561773193359375,-0.9767303466796875,-0.0359649658203125,-0.17449951171875
1713449213001846000,12.571845947265626,-0.973663330078125,-0.035400390625,-0.178009033203125
1713449213011919400,12.58191943359375,-0.9765472412109375,-0.0359344482421875,-0.1811676025390625
1713449213021992200,12.5919921875,-0.9760589599609375,-0.03692626953125,-0.1794586181640625
1713449213032065300,12.602065185546875,-0.9763946533203125,-0.0354156494140625,-0.17962646484375
1713449213042139100,12.61213916015625,-0.98199462890625,-0.03375244140625,-0.1806488037109375
1713449213052212200,12.622212158203125,-0.9862213134765625,-0.0326080322265625,-0.1826019287109375
1713449213062285300,12.632285400390625,-0.9934539794921875,-0.0334320068359375,-0.1853179931640625
1713449213072358100,12.642358154296875,-0.9992218017578125,-0.0364227294921875,-0.1851654052734375
1713449213082432000,12.652431884765624,-0.99554443359375,-0.040771484375,-0.185089111328125
1713449213092505300,12.66250537109375,-0.9940338134765625,-0.041351318359375,-0.18328857421875
1713449213102578200,12.672578125,-0.9969024658203125,-0.0409698486328125,-0.181884765625
1713449213112651000,12.682651123046876,-0.99395751953125,-0.040283203125,-0.18609619140625
1713449213122725400,12.692725341796875,-0.982666015625,-0.041534423828125,-0.184967041015625
1713449213132798200,12.702798095703125,-0.97259521484375,-0.0440673828125,-0.1836700439453125
1713449213142871000,12.71287109375,-0.966888427734375,-0.0441741943359375,-0.1818389892578125
1713449213152944000,12.722944091796874,-0.961212158203125,-0.04473876953125,-0.17828369140625
1713449213163018200,12.733018310546875,-0.9616241455078125,-0.0460357666015625,-0.1793975830078125
1713449213173091000,12.743091064453125,-0.966766357421875,-0.0454559326171875,-0.1812286376953125
1713449213183164200,12.7531640625,-0.974090576171875,-0.0429840087890625,-0.1793670654296875
1713449213193237000,12.763237060546874,-0.985626220703125,-0.0415802001953125,-0.1795654296875
1713449213203311000,12.77331103515625,-0.98822021484375,-0.0430755615234375,-0.1797637939453125
1713449213213384200,12.78338427734375,-0.987762451171875,-0.043914794921875,-0.1804046630859375
1713449213223457000,12.79345703125,-0.9835662841796875,-0.0431060791015625,-0.1800079345703125
1713449213233530000,12.803530029296875,-0.98394775390625,-0.045379638671875,-0.1790618896484375
1713449213243603200,12.813603271484375,-0.9764556884765625,-0.046295166015625,-0.1784820556640625
1713449213253677000,12.823677001953126,-0.96728515625,-0.047149658203125,-0.17572021484375
1713449213263750100,12.833750244140624,-0.9728546142578125,-0.04766845703125,-0.176666259765625
1713449213273823000,12.843822998046875,-0.9792327880859375,-0.0478363037109375,-0.1787109375
