time,seconds_elapsed,z,y,x
1713449200460679200,0.03067919921875,0.6885515154164285,0.2327361582070589,-0.11401903175935149
1713449200470752300,0.040752197265625,0.821208831346035,0.12937398341000078,-0.18755875361412763
1713449200480825300,0.050825439453125,1.0319465812999755,-0.06008534312844276,0.09777662974968553
1713449200490898400,0.0608984375,1.079215624409914,-0.029124972197413442,0.20371581542789935
1713449200500972300,0.07097216796875,0.9075146574020385,0.2151648456811905,-0.04880640874505043
1713449200511045000,0.081045166015625,0.6577911240369081,0.48617900435626504,0.19782149669229984
1713449200521118500,0.091118408203125,0.5154758259892464,0.9617027591854334,1.0355892486512661
1713449200531191300,0.10119140625,0.5032902981549501,1.8379378967046736,1.7742708956971764
1713449200541264400,0.111264404296875,0.31214360305145383,2.8483161317318677,2.6189655243098735
1713449200551338200,0.121338134765625,0.030166736335307358,3.3684465055286883,3.195674109897017
1713449200561411300,0.131411376953125,0.7788774638339877,3.52376098588109,4.225709816074371
1713449200571484400,0.141484375,2.341668339842558,3.9299838254690167,5.3993906075984235
1713449200581557200,0.15155712890625,3.237375947333872,1.911865887224674,1.7845076275512575
1713449200591631400,0.16163134765625,0.9603022447377443,-3.288980754625797,-7.186382745441794
1713449200601704400,0.171704345703125,-3.4509915177464485,-5.611725198289752,-9.002592794463038
1713449200611777300,0.18177734375,-3.3348829663619397,-4.407715903997421,-5.063743525493145
1713449200621850400,0.191850341796875,-0.9787851191505789,-2.148220235928893,-0.3139562054313719
1713449200631923200,0.201923095703125,0.8975795388430357,-0.4767956744611263,2.423175533445179
1713449200641998000,0.211998046875,1.2343351667121052,-0.14195289447605608,2.325400072739273
1713449200652071000,0.22207080078125,1.407939629253745,0.1674322036474943,2.487129242439568
1713449200662144000,0.23214404296875,1.567250485765934,0.47104514811038967,2.256388349702954
1713449200672217000,0.242217041015625,1.9849641489222645,0.9660632924824952,1.9683624120809136
1713449200682291000,0.252291015625,2.6094015771508214,1.3446663037389517,2.2924735163018104
1713449200692364000,0.262364013671875,2.583722653754055,1.5092559774369,1.9550567941755055
1713449200702436900,0.272436767578125,3.5488311297297477,1.4901134700715541,0.9897592253684997
1713449200712510200,0.28251025390625,2.2087276038616896,1.271892743951082,0.6710919196367263
1713449200722583000,0.2925830078125,0.2757552157223224,0.777395993104577,0.04795417582988739
1713449200732657000,0.302656982421875,-0.08729717518091201,0.06608253771662712,-0.058096215137839316
1713449200742730000,0.31272998046875,0.47869303251504897,-0.8300988247662782,0.18719956491291523
1713449200752803000,0.322802978515625,0.7904407681167125,-1.1815449490278958,-0.35664018577337264
1713449200762876200,0.332876220703125,0.9833861832052468,-1.2536579990804195,-1.801332797884941
1713449200772950000,0.342949951171875,1.0590016884207725,-1.2370318584501743,-2.911889609237015
1713449200783023000,0.353023193359375,1.0418582459181547,-1.034752213305235,-2.456509063248336
1713449200793096200,0.36309619140625,0.6430921520769596,-0.6883873378306626,-1.0658183826982974
1713449200803169000,0.3731689453125,0.42331075251102446,-0.0568377395093441,0.45340077034831044
1713449200813241900,0.383241943359375,0.2847761420458555,0.25813538787961005,1.6689336214348673
1713449200823316200,0.393316162109375,0.09171031544804573,0.6538619678944348,2.651193430958688
1713449200833389000,0.40338916015625,-0.08925298542380332,1.2064806528419256,3.2494442785292863
1713449200843462000,0.4134619140625,-0.6746820530831813,1.1714707142591476,2.6980472443312404
1713449200853535000,0.423534912109375,-1.4664999547719955,0.7981418440133333,1.5359686277955769
1713449200863609000,0.433609130859375,-2.3391344374507663,0.7573521529853343,0.8449176237136125
1713449200873682000,0.443681884765625,-3.250697493460774,0.9967840094387531,0.9232043939650059
1713449200883755000,0.453755126953125,-4.139703849747777,1.365757022562623,1.4650713832736015
1713449200893827800,0.463827880859375,-4.579071418568492,1.5116343970060349,2.0139158103793857
1713449200903901200,0.473901123046875,-4.0549300555646415,0.9846464123994112,2.2236323275268077
1713449200913975000,0.48397509765625,-3.1605045968383547,0.40527591412663455,1.910066436587274
1713449200924048000,0.4940478515625,-2.259599712964892,0.6782768627047538,1.317796416991949
1713449200934121200,0.504121337890625,-1.133877188923955,0.6771744544208049,0.6151338855713605
1713449200944194000,0.514194091796875,-0.4555968190878629,0.4740893381118774,-0.1639291639626026
1713449200954268000,0.524267822265625,-0.3079699706286192,0.4003337815493345,-0.6520581333428621
1713449200964341000,0.534341064453125,-0.19786475131213663,-0.08622282394766807,-0.25917642136514185
1713449200974414000,0.5444140625,0.03764087160825729,-0.49676235769093036,0.19348434427082536
1713449200984487200,0.554487060546875,-0.12584347119629383,-0.16359949361681939,-0.043296705412864685
1713449200994560000,0.56456005859375,1.0975719498336314,0.6881149506300688,-0.6812298672914504
1713449201004633900,0.5746337890625,3.157736301168799,0.9314578430473804,-2.0864041234850883
1713449201014707200,0.584707275390625,-0.7715636336892843,-0.8068973973989486,-1.513735753199458
1713449201024780000,0.594780029296875,0.39738428409397597,-0.6488865175694227,0.6517191106468438
1713449201034852900,0.604852783203125,-0.19211773209273814,-0.620341975608468,1.1058055251717567
1713449201044927200,0.61492724609375,0.7128828966617584,-0.7075865438193082,0.8271019810378551
1713449201055000000,0.625,1.2681599871635436,-0.9222562994599341,1.5260720876812934
1713449201065073000,0.635072998046875,0.817834970998764,-1.0351876821130515,2.83309342815876
1713449201075146000,0.64514599609375,-0.2018745714753866,-1.553779594296217,2.39906838940978
1713449201085218800,0.65521875,-0.8661953895419836,-2.7012974782988426,2.1650340080857275
1713449201095293000,0.66529296875,0.18533318651914596,-5.192486225262284,4.443031547528505
1713449201105366000,0.675365966796875,-0.933264015686512,-7.3442112544417375,4.984189511784911
1713449201115438800,0.68543896484375,-4.365339236038923,-6.794782889968157,3.2405519470214843
1713449201125512200,0.69551220703125,-3.956923270320892,-6.620680707037448,2.295385896617174
1713449201135586000,0.7055859375,-3.9046746121674776,-7.242161331287026,1.3762544511795043
1713449201145659000,0.715658935546875,-4.104351381337643,-6.985190895533561,0.08057225084006786
1713449201155732000,0.72573193359375,-4.539660614678263,-6.352682096791267,-0.6328203489094972
1713449201165805000,0.73580517578125,-4.724669099287689,-5.315989270812273,-0.5209183093041181
1713449201175878100,0.745878173828125,-3.712836866059899,-4.292520083543658,0.5104810864418745
1713449201185952000,0.755951904296875,-2.606929634079337,-3.814149707111716,1.70260120549798
1713449201196025000,0.766025146484375,-1.5110565971180796,-3.7531560169667,3.098517219480872
1713449201206098200,0.77609814453125,0.20061317323744296,-3.650476563736796,3.7911236363112923
1713449201216171000,0.7861708984375,1.85276224860996,-2.91953661685884,3.8372956048995253
1713449201226244900,0.796244873046875,2.6370038698256013,-2.7494953997567295,3.282921016195416
1713449201236318200,0.806318115234375,2.9593609699860215,-2.266973164342344,3.276220641773939
1713449201246391000,0.81639111328125,3.2309763094246384,-2.104260098171234,3.2053906172692774
1713449201256464100,0.826464111328125,3.4074633416652675,-2.2556094742849466,4.022777844500541
1713449201266537000,0.836536865234375,3.2731910648196934,-2.991197246968746,4.5133185511976475
1713449201276611000,0.846611083984375,3.9704169581443067,-4.693315052863955,5.389179594707489
1713449201286684200,0.85668408203125,5.767048446470499,-4.095414918427169,5.425382542467117
1713449201296757000,0.866757080078125,4.579593396615982,-1.1071288827300072,4.556410089427232
1713449201306829800,0.876829833984375,3.56564899353981,2.036985720321536,5.363121024343371
1713449201316904200,0.886904296875,0.6997153720527887,3.8787250551357864,4.881759649401903
1713449201326977000,0.89697705078125,-4.47495228792429,3.6589752197518943,4.8835412721216676
1713449201337049900,0.9070498046875,-6.540450401502847,3.427002154871821,6.43225773780942
1713449201347123000,0.917123046875,-5.852843984916806,4.596486956010758,8.511856857454775
1713449201357196000,0.927196044921875,-3.5260002892404794,5.795557917118072,10.024522351074218
1713449201367270000,0.937269775390625,-1.409446526685357,6.788575852021575,11.336304037821293
1713449201377343000,0.947343017578125,-1.0454513019740581,6.721501380658149,11.235775625145434
1713449201387416000,0.957416015625,-2.252149981480837,5.4763283013284205,10.840470485413073
1713449201397489200,0.9674892578125,-3.5292151596337553,3.967470675559342,11.078028364688157
1713449201407562000,0.97756201171875,-4.62814261572957,2.206846612420678,12.01270809239149
1713449201417635800,0.9876357421875,-5.364910830369592,0.5898571132346987,13.126270223039388
1713449201427709200,0.997709228515625,-5.944850068441033,1.0634370405197142,13.919609050685166
1713449201437782000,1.007781982421875,-7.165553307902813,1.6418179432332514,13.319586809527873
1713449201447855000,1.017855224609375,-8.170575568854808,2.4890172481432558,12.651150957357883
1713449201457929200,1.02792919921875,-8.159893431320786,3.115246820485592,11.99085164989233
1713449201468002000,1.038001953125,-7.765211391922831,3.470132271546125,10.824523559218644
1713449201478075100,1.0480751953125,-7.606143696516752,3.4033120672047135,9.178817960897087
1713449201488148000,1.05814794921875,-7.292580435925721,3.4947236919671294,7.596787839150428
1713449201498220800,1.068220703125,-6.994581824213266,3.574759351712465,5.368800823545455
1713449201508295200,1.078295166015625,-6.437022760254144,3.4676878010034557,2.894826246233284
1713449201518368000,1.088367919921875,-6.255763691306114,3.097676092481613,0.3937799759916961
1713449201528440800,1.09844091796875,-5.844096614837646,2.802559758207202,-1.936355600836873
1713449201538514000,1.108513916015625,-5.098718977284431,2.6086054583370686,-3.7942797622546554
1713449201548588000,1.118588134765625,-3.491500638267398,0.9297849413990974,-2.380757948954403
1713449201558660900,1.128660888671875,3.709901981651783,-5.065204830217361,1.3043439379617572
1713449201568734000,1.13873388671875,3.9984348458826537,-2.1756793207406995,-13.812649728178977
1713449201578807000,1.14880712890625,5.321038370895385,10.247151541286707,-17.185072151601315
1713449201588880100,1.158880126953125,7.615449285000563,12.12257599582076,-2.874695896874368
1713449201598954000,1.1689541015625,1.860076663276553,18.007241936933994,3.538858017247915
1713449201609026800,1.17902685546875,3.9183565160393714,22.213814506340025,2.7338109238907693
1713449201619100200,1.18910009765625,-24.25527824885845,12.186166132199764,-6.848525001549721
1713449201629173000,1.199173095703125,-84.7385030895233,-2.7656723353147505,-16.514208195501563
1713449201639246000,1.20924609375,-34.56901501668691,5.894945343065261,2.258360380428284
1713449201649319000,1.21931884765625,11.467346831226347,-0.13381649590209127,8.630345289713144
1713449201659392000,1.22939208984375,18.598935910207032,-6.728066146001219,0.8118845381617545
1713449201669465000,1.239465087890625,7.4939979112833734,-2.0040280380934474,0.38039194049984215
1713449201679538000,1.249537841796875,-18.10979980961084,-2.333702329399437,-5.6424634509027
1713449201689612000,1.259612060546875,-21.579655017781256,1.3223809683032333,-5.791998178809881
1713449201699685000,1.26968505859375,-2.0971347763359547,4.047877214443683,-0.9808195475876331
1713449201709758000,1.279758056640625,6.893026991099119,1.7864913487143814,-1.8155819802507758
1713449201719831000,1.2898310546875,7.232665773189067,-1.1177074137590826,-4.7824072947680945
1713449201729905200,1.2999052734375,5.223040938001871,-2.922097407257557,-6.48660307598114
1713449201739978000,1.30997802734375,1.6076982314884662,-3.3111230283290145,-6.733869863843918
1713449201750051000,1.320051025390625,0.18440788836777208,-2.615758252701163,-4.485688201472163
1713449201760124000,1.3301240234375,1.8430425263673067,-1.9697975594505666,-0.7844599401414394
1713449201770197000,1.340197021484375,4.077616519147157,-1.0569944402515887,1.5354484033137559
1713449201780271000,1.35027099609375,5.508208709713816,-0.3972918565701693,2.300095389482379
1713449201790344000,1.360343994140625,1.9304367321819065,-0.049358928061276675,1.6769208207964896
1713449201800417000,1.3704169921875,-4.174113484349847,0.31313685187250373,0.8584241710186005
1713449201810490000,1.380489990234375,-4.000578287652135,0.5588184163704514,1.1411740679338573
1713449201820563200,1.390563232421875,-1.7617431302964686,1.1696365576345473,1.266218643837422
1713449201830637000,1.400636962890625,-0.5805033016949892,0.8435092912856489,0.7359386319480836
1713449201840710000,1.4107099609375,-0.0028249942928552626,0.3367509516939521,0.44744580746665596
1713449201850783200,1.420783203125,0.5232715944319963,0.42510340808145697,0.39518034430891275
1713449201860856000,1.43085595703125,0.3444511508077383,0.6408288833200931,-0.029507687904685734
1713449201870930000,1.440929931640625,0.005856909334659576,0.27582214347869155,-0.7877937607392669
1713449201881003000,1.4510029296875,-0.3156722155690193,-0.33567901161350305,-1.4201238419137894
1713449201891076000,1.461076171875,-0.21060966659486294,-0.9252212867453694,-1.7484835434898733
1713449201901149000,1.47114892578125,-0.1636158602297306,-0.8904491024412214,-1.85182935167402
1713449201911222000,1.481221923828125,-0.16744330956339834,-0.13352365043535827,-1.86734183197394
1713449201921296100,1.491296142578125,-0.23252982197999952,0.3667852207560092,-2.0517706169992684
1713449201931369000,1.501368896484375,0.07489069807231426,0.4138835834741592,-1.8268705592453478
1713449201941442000,1.511442138671875,0.8771393928825855,0.4226631753224879,-1.4360291209235787
1713449201951515000,1.521514892578125,1.5358786114245653,0.3061387366134673,-0.9286216697733849
1713449201961589000,1.531589111328125,1.6323936968058346,0.5222951506152749,-0.2358443898880854
1713449201971662000,1.541662109375,1.1045990719914436,0.2377353547338396,0.8992199264612049
1713449201981735000,1.55173486328125,0.3690560152322054,0.7061486199706792,1.9069654018320141
1713449201991808000,1.56180810546875,-1.4651643222540616,1.5775579447686672,3.952923094768822
1713449202001881000,1.571881103515625,-3.0583202336490154,-1.3245556819938122,8.034758985176682
1713449202011955000,1.581954833984375,-3.6215590968102216,-0.944938671389222,4.724179562205076
1713449202022028000,1.592028076171875,-2.152349298557639,0.8679664178024977,0.11543627814613282
1713449202032100900,1.602100830078125,-0.6832739403396845,1.7646851750977337,-0.06107639999240636
1713449202042174200,1.61217431640625,0.920654709482193,1.4538902101762592,1.091497452225536
1713449202052247000,1.6222470703125,-0.7310089204609393,-1.5621970017686486,-0.10271576665230095
1713449202062321000,1.63232080078125,-2.6845523874640462,-1.6017817009210586,-0.06216368377245962
1713449202072394200,1.642394287109375,-2.071458483287692,-1.0812355859301983,0.5902872482802719
1713449202082467000,1.652467041015625,-0.674820584771037,-1.5756082720056175,1.2261439692109823
1713449202092540000,1.662539794921875,0.5935895777612924,-2.8328473444432016,1.3212506490990519
1713449202102614000,1.672614013671875,0.5483803167253732,-4.634248531389236,1.5646506785310803
1713449202112687000,1.68268701171875,-0.37788814098536966,-6.668520901098847,2.4345465300261973
1713449202122760000,1.692760009765625,-1.8138742995500563,-7.339329912140965,3.965556658631563
1713449202132833000,1.7028330078125,-3.0633108815431593,-5.681264598461985,5.634209417298436
1713449202142905900,1.71290576171875,-3.109498632222414,-2.7230177271977065,6.7338049819141625
1713449202152980000,1.72297998046875,-2.0290864915043114,0.41274168343003836,7.308202952471375
1713449202163053000,1.733052978515625,-0.3231996884644031,2.973735240036249,7.225806993335485
1713449202173126000,1.7431259765625,0.5224444959580898,4.794126958656311,5.850587730422616
1713449202183199000,1.753198974609375,0.23927988076210022,5.263166027641296,3.7644106936916706
1713449202193273000,1.763273193359375,0.9467688094258307,5.571267515695094,0.997376276243478
1713449202203346000,1.773345947265625,2.23472479942739,5.23451334913075,-1.6892536481469869
1713449202213419000,1.7834189453125,4.332606594738364,4.407234842482209,-4.085843080222606
1713449202223491800,1.793491943359375,5.852671550959348,3.632119946052134,-5.996151801133156
1713449202233565200,1.803565185546875,6.2789095890939235,2.895556021812558,-7.727787377935647
1713449202243639000,1.81363916015625,5.2831689512282605,1.6593191131323575,-11.201831269967556
1713449202253712000,1.8237119140625,4.036334660688042,0.6270235722642391,-16.176741496753692
1713449202263785200,1.83378515625,4.035864705088734,0.9811867003995924,-18.60700114324093
1713449202273858000,1.843858154296875,2.1227993789464232,2.319583787675947,-15.762571497553585
1713449202283931100,1.85393115234375,-4.849587564593553,3.383425171212852,-7.082539509129524
1713449202294005000,1.8640048828125,-8.88606192601323,3.3190397928029296,0.45084553290754553
1713449202304078000,1.874078125,-4.863105802336335,2.2440333105206487,1.6572157111123202
1713449202314151200,1.884151123046875,-1.070056166398525,2.176503204344213,2.263219949288666
1713449202324224000,1.89422412109375,-1.2685457716107367,1.654872801247984,4.664919856245816
1713449202334298000,1.904298095703125,-4.302136637672782,0.6239794553279876,6.306225466042757
1713449202344371200,1.91437109375,-6.191992353141307,-0.21784429402351377,5.80518440811932
1713449202354444000,1.924444091796875,-4.806435820609331,0.12058938659299165,3.713827922923863
1713449202364516900,1.934516845703125,-2.498652799233794,1.4227113741889594,1.8596145987227557
1713449202374590000,1.94458984375,-1.3469529533714055,2.674613177251816,0.9560928103491664
1713449202384664000,1.9546640625,-0.10344751499295234,1.6259021428294478,0.5679141614958644
1713449202394737000,1.96473681640625,2.1642507487535476,-4.353668671989441,-0.9542141569957137
1713449202404810000,1.97481005859375,5.110678295147419,-10.336877989441156,-2.924221559804678
1713449202414882800,1.9848828125,6.259460792258381,-11.0611988104403,-1.9290007080294191
1713449202424957000,1.99495703125,3.24917598298192,-8.45923644337952,1.0830985302578657
1713449202435030000,2.005030029296875,-2.280104156333208,-5.393777443891763,2.2354329476967454
1713449202445102800,2.015102783203125,-4.617978949111699,-2.857628734478354,0.9068369042709469
1713449202455176200,2.02517626953125,-2.3863059384703633,-1.3447083893150091,1.1565296041063964
1713449202465249000,2.0352490234375,0.28438100524842735,-0.5244035576039925,2.754035965795815
1713449202475323000,2.045322998046875,0.6840998697698116,0.6850919495470822,2.1517915185444054
1713449202485396000,2.05539599609375,1.1149538772672414,1.3903786919914185,-0.17603373551517723
1713449202495469000,2.065468994140625,-0.0533738627910614,0.9190049695137887,-1.7050512289986013
1713449202505542100,2.075542236328125,-3.6067081491589543,0.1364751937173307,-0.412001276858896
1713449202515616000,2.085615966796875,-4.188330810272693,-0.4514366306684911,0.529082472667843
1713449202525689000,2.095689208984375,-0.891504602843523,-1.1245237427104264,0.8011212982155382
1713449202535762200,2.10576220703125,1.6595377243191003,-1.2440472901701927,1.129068911859393
1713449202545835000,2.1158349609375,2.056471342036128,-0.6756625885531305,0.6393674324654043
1713449202555907800,2.125907958984375,1.0275736999779939,0.06970580624770373,-0.42727965614199637
1713449202565982200,2.135982177734375,0.2620329798400402,0.6338162280790507,-1.1750393665261567
1713449202576055000,2.146054931640625,-0.20305004499554632,0.8337287057012319,-0.8266706038832664
1713449202586128000,2.1561279296875,-0.669153060528636,0.2991435804964974,0.1396434484899044
1713449202596201000,2.166200927734375,-0.6678729575902224,-0.21725399998016653,0.6499390953622758
1713449202606274000,2.176274169921875,-0.3124614368289709,-0.34574835101142526,0.4868741470135748
1713449202616348000,2.186347900390625,0.06748772833943367,-0.6704137281142175,0.6438884170211852
1713449202626421000,2.1964208984375,0.3076210110604763,-0.6917678471144288,0.8530060184273869
1713449202636494600,2.20649462890625,0.22330080586373804,-0.19095877131596206,0.8155771090693771
1713449202646567700,2.216567626953125,-0.06749357355833054,0.6056497256502509,0.28897673554085196
1713449202656641800,2.226641845703125,-0.4348813633173704,1.0577745577786117,-0.31190716394707557
1713449202666714600,2.236714599609375,-0.5036608850330114,1.190940553882718,-0.7662146738767623
1713449202676787700,2.24678759765625,-0.2029512607961893,1.1808487834572792,-1.139681199027598
1713449202686860500,2.256860595703125,0.1357645612299442,1.0601932362928985,-1.1568261028349398
1713449202696933600,2.26693359375,0.2915758851885795,0.8010052706204355,-1.0862923578631132
1713449202707007700,2.2770078125,0.15105565386414527,0.44666612833105024,-0.31593437363654375
1713449202717080600,2.28708056640625,-0.10332418087422847,0.39044586313292384,0.21047741851732132
1713449202727153700,2.297153564453125,-0.3532061196714639,0.6927876186162233,0.4884942955613136
1713449202737226800,2.307226806640625,-0.17462825263142584,0.8763766648817807,0.800324448749423
1713449202747300600,2.317300537109375,0.1785077244132757,0.7941269092835486,1.055525098351389
1713449202757373700,2.327373779296875,-0.08354571369290352,0.33777262289188803,1.1401987931609152
1713449202767446800,2.33744677734375,-0.7349187873810529,-0.08324833818152547,0.3940060398325324
1713449202777519600,2.34751953125,-1.0298983435332774,-0.34221323568783696,-0.8492983230158686
1713449202787592700,2.3575927734375,-0.6569932516574859,-0.7961882257275282,-1.3669526620879768
1713449202797666600,2.36766650390625,0.6356096873670816,-1.2823298206828533,-0.9790382171288132
1713449202807739600,2.37773974609375,2.155484089452028,-1.13475791728124,-0.3613393033750355
1713449202817812700,2.387812744140625,2.545201784440875,-0.5049322201430797,0.4094914859950542
1713449202827885600,2.397885498046875,1.5538082358688114,0.12641944445334374,0.7725524985961616
1713449202837959400,2.40795947265625,-0.20900983018279073,0.3663957099817693,0.05826806457340717
1713449202848032800,2.41803271484375,-1.9706606060206888,0.4369362500205636,-0.40276714617609977
1713449202858105600,2.428105712890625,-2.5327502991467714,0.09464914537891746,0.14260624381825326
1713449202868178700,2.4381787109375,-1.5962304965347052,-0.21007380615249274,0.5027782569795847
1713449202878251500,2.44825146484375,-0.4657873737126589,-0.08602898187600076,0.13281389473080635
1713449202888325600,2.45832568359375,0.4957219087272882,-0.0732850164413452,-0.022918372642248868
1713449202898398700,2.468398681640625,1.11044312184453,-0.1844531888142228,-0.051636663734912866
1713449202908471600,2.478471435546875,1.6426947260677813,-0.65840311845541,0.5746082523070275
1713449202918544600,2.488544677734375,1.729257741755247,-1.1040367619335651,1.4525262283466756
1713449202928617700,2.49861767578125,1.0261755236178636,-0.8367006341841071,1.2575509148657322
1713449202938691600,2.508691650390625,-0.7322855162680149,0.13305479081459343,-0.0742266812056303
1713449202948764700,2.5187646484375,-2.373904722058773,0.8345105767939239,-0.9046120678283274
1713449202958837800,2.528837646484375,-2.2766513855308292,0.922727935559675,-0.5549450820684433
1713449202968910600,2.53891064453125,-1.1292542052984238,0.31940380331277846,0.3625321664214134
1713449202978984700,2.548984619140625,-0.7173726092964411,-0.18118929164744912,0.9301467604488134
1713449202989057500,2.5590576171875,-0.5099146847307682,-0.16068514054007826,1.122196395741403
1713449202999130600,2.569130615234375,0.25640111143290994,0.014548603703826666,1.0802616263315081
1713449203009203700,2.57920361328125,1.868198594933748,0.2789849914237857,0.7608341498821973
1713449203019276500,2.589276611328125,3.203853909221291,0.7179445639654993,0.09695669166892766
1713449203029350700,2.5993505859375,3.7541029424279926,1.1037082606315611,-0.799279908132553
1713449203039423700,2.609423828125,3.791430510303378,0.8058420431271195,-1.268043667307496
1713449203049496600,2.61949658203125,3.291967076960206,0.22780410863235592,-0.6546291528746485
1713449203059569700,2.629569580078125,2.7940374290555714,-0.3116809539757669,0.44075785413533447
1713449203069643800,2.639643798828125,2.1687007138997316,-0.4459989696592092,0.8233838372975587
1713449203079716600,2.649716552734375,0.6387707817465067,-0.2976837005443871,0.8322969193324447
1713449203089789700,2.659789794921875,-0.7916103964179754,-0.15828765094429254,0.5716004487931728
1713449203099862500,2.669862548828125,-0.9308949484676122,-0.2391597615137696,0.4022700103089213
1713449203109935600,2.679935546875,0.028342297387123107,-0.41383711398392914,0.4115343899995088
1713449203120009700,2.690009765625,0.1570844126343727,-0.31158684595152736,-0.008914835600554942
1713449203130082600,2.70008251953125,-0.7121463990807533,0.07221709494888782,-0.35786505139321084
1713449203140155600,2.71015576171875,-1.2185247263789176,0.19143135726377367,-0.21741525495648384
1713449203150228700,2.720228759765625,-1.350956343793869,0.018280483708530665,-0.023944354689121244
1713449203160302600,2.730302490234375,-1.2572457944393156,0.0520824347410351,-0.03958440689146518
1713449203170375700,2.740375732421875,-1.1660106952875853,0.10270451460592449,-0.21370091060847043
1713449203180448500,2.750448486328125,-0.995101755440235,0.13612265395261347,-0.11125117448121309
1713449203190521600,2.760521484375,-0.6733955204039812,0.060706105375289914,-0.0491343255251646
1713449203200594700,2.7705947265625,-0.5711427681535483,0.04076499497815966,-0.18322569284588097
1713449203210668500,2.78066845703125,-0.5804395888090134,0.08940627628937363,-0.17283201686441899
1713449203220741600,2.79074169921875,-0.6030886429905891,0.1268336512774229,-0.1422147602826357
1713449203230814700,2.800814697265625,-0.5721797099858522,0.14716858329772947,-0.16427578544318674
1713449203240887600,2.810887451171875,-0.5604758281886577,0.09468436282277107,-0.12715922996997833
1713449203250960600,2.820960693359375,-0.5148679232239722,0.06299100144207477,-0.1070198205217719
1713449203261034800,2.83103466796875,-0.5501379740476608,0.021444281501695514,-0.12475567595958709
1713449203271107600,2.841107666015625,-0.5464011256068945,0.07761405862160027,-0.17294278376251457
1713449203281180700,2.8511806640625,-0.4681599480628967,0.10400273772291839,-0.2100979176804423
1713449203291253500,2.86125341796875,-0.40979017668068407,0.1441260737966746,-0.1926493547514081
1713449203301327600,2.87132763671875,-0.24796587604284284,0.14758848921023307,-0.09429331767857074
1713449203311400700,2.881400634765625,0.06756137809753418,0.08636800457201897,-0.034433892260491844
1713449203321473500,2.8914736328125,0.187927294665575,0.024746684047952293,0.026328034955263136
1713449203331546600,2.901546630859375,0.26223405537009237,0.009192556563392282,0.07820143005549907
1713449203341619700,2.91161962890625,0.2880868740290403,-0.0013360709093511104,0.13950491680204868
1713449203351693600,2.921693603515625,0.15410159743130206,-0.0912274273019284,0.10262626173794269
1713449203361766700,2.9317666015625,0.331286548808217,-0.07923818922471254,0.04319909025728702
1713449203371839500,2.941839599609375,0.4358838183581829,-0.039279359530284996,0.1534828810110688
1713449203381912800,2.951912841796875,0.3369055577337742,-0.023088943436183035,0.1696034102067351
1713449203391986700,2.961986572265625,0.1797112549841404,-0.03622011809013784,0.10918722768872975
1713449203402059500,2.9720595703125,-0.026802666729688642,-0.04631020801514387,0.06536591387987137
1713449203412132900,2.9821328125,-0.14928396801650523,0.024311470968462524,-0.0219093417301774
1713449203422205700,2.992205810546875,-0.1070136830419302,0.09858688668664545,-0.007427227391302585
1713449203432278500,3.002278564453125,-0.051067923936247824,0.10079890018031,0.0190294023796916
1713449203442352600,3.0123525390625,0.10582008934319019,0.056231882570683955,0.029472470460832116
1713449203452425700,3.02242578125,0.1578419530034065,0.019465894100815055,0.18634850104153156
1713449203462498600,3.03249853515625,0.18643033410608767,0.00025722616408020254,0.2369277646780014
1713449203472571600,3.042571533203125,0.14069967954456805,-0.01293517715781927,0.20203794534355402
1713449203482644500,3.05264453125,0.043458617976307866,-0.0013413316063582896,0.08726239612847567
1713449203492718600,3.062718505859375,-0.11391454847157001,0.05383417377918959,-0.020068097777664662
1713449203502791700,3.072791748046875,-0.3692033147484064,0.05586144182309508,0.0628150603532791
1713449203512864500,3.082864501953125,-0.7554138783991337,0.08953969341069459,0.002221183180809021
1713449203522937600,3.0929375,-0.8473556645154953,0.10969283912330866,-0.25209873806387184
1713449203533011700,3.10301171875,-0.6112877315372228,-0.08729322965815663,-0.15671031862497328
1713449203543084500,3.11308447265625,-0.3239256646513939,-0.09550313185974955,-0.09529168106615543
1713449203553157600,3.12315771484375,-0.15361059904396532,0.07131999997869133,-0.05565116007328033
1713449203563230700,3.133230712890625,-0.05062544086575508,0.07486044906452298,-0.032922026392817494
1713449203573303800,3.1433037109375,-0.027346856608986853,0.08719431759463622,-0.04392389740049839
1713449203583377700,3.153377685546875,-0.03370236311554908,0.09693228788003325,-0.06569032352864741
1713449203593450500,3.163450439453125,-0.047962943658232685,0.09793050513714552,0.004424538443982601
1713449203603523800,3.17352392578125,0.0390390479683876,0.041066023751348255,0.07480652692019939
1713449203613596700,3.1835966796875,0.11474047790169715,-0.03148673289269209,0.1415972129061818
1713449203623670500,3.19367041015625,0.08924889377057552,0.012870149097591637,0.10049041875302792
1713449203633743600,3.20374365234375,0.04583528397977352,-0.03287511851117015,0.14375322189629078
1713449203643816700,3.213816650390625,0.011008300748467445,0.08361132627502084,-0.03307750921547413
1713449203653889500,3.2238896484375,-0.11505495067834853,0.1946484196141362,-0.2833300348907709
1713449203663963000,3.233962890625,-0.23797990407943725,0.15424275946766136,-0.3046615767329931
1713449203674036700,3.24403662109375,-0.26530337981283664,0.07742094720229506,-0.09496551785171031
1713449203684109600,3.254109619140625,-0.32356969082057474,0.03865443256497383,-0.03401595910936594
1713449203694183000,3.264182861328125,-0.34168519322574137,-0.03606105507090687,0.03668722414523363
1713449203704255700,3.274255859375,-0.3489163135230541,0.006698036333918571,0.03909282398223877
1713449203714328800,3.284328857421875,-0.25380057354569435,-0.14110314577892422,0.060553545162081716
1713449203724402700,3.294402587890625,-0.21904373294115065,-0.2110239464841783,0.14614099381566048
1713449203734475800,3.304475830078125,-0.464490904161334,0.19921908853054046,-0.2143719417378306
1713449203744548900,3.314548828125,-0.5911608893096446,0.49131519820094105,-0.6183434952676296
1713449203754621700,3.32462158203125,-0.20262685114741324,0.17705463952813297,-0.17540478996187447
1713449203764695800,3.33469580078125,0.1572761358141899,-0.2111050488963723,0.31965427094250914
1713449203774769000,3.344768798828125,0.2502192079275846,-0.20525964733641594,0.2122682474568486
1713449203784841700,3.354841796875,0.20332360123991966,-0.010528700537979602,0.020374094986915586
1713449203794914800,3.364914794921875,0.040787937462329865,0.08864552104994654,-0.025009938094019888
1713449203804987600,3.374987548828125,-0.0539186371922493,0.09702829560041427,-0.02423077041506767
1713449203815061800,3.385061767578125,-0.02446341012716293,0.037658261134475464,-0.060499184626340866
1713449203825134800,3.395134765625,0.03035948242843151,0.07467310979887842,0.05245674794614315
1713449203835207700,3.405207763671875,0.05570259799957275,0.09759656047504395,0.17357231383770702
1713449203845280800,3.41528076171875,0.10204583150148391,-0.052006154634431,0.1441962894886732
1713449203855355000,3.42535498046875,0.10150690231919288,0.032445421857014295,0.09323241044878959
1713449203865427700,3.435427734375,-0.04862403791546821,0.13645407786406577,0.168934132643044
1713449203875500800,3.445500732421875,-0.18859715675115585,0.22842998544573784,0.20171090534627437
1713449203885574000,3.455573974609375,-0.49217970607578754,0.279698692651093,0.30177111598849293
1713449203895646700,3.465646728515625,-1.0493272666245699,0.34437435924448073,0.20780629961192607
1713449203905720800,3.475720947265625,-0.9646884969979524,0.11351765810847282,-0.16858020463883877
1713449203915793700,3.485793701171875,-0.8725590793550014,0.3489824375618249,-0.2558808869510889
1713449203925866800,3.49586669921875,-1.015945221504569,0.4557786784607917,-0.12947744378447532
1713449203935939800,3.50593994140625,-1.1440753423333168,0.5472032357700168,-0.22372692232131958
1713449203946012700,3.5160126953125,-0.9982739557355642,0.29314693389758467,-0.2283095739364624
1713449203956086800,3.526086669921875,-0.8119003202527761,0.2168555752471089,-0.15843611950427292
1713449203966160000,3.536159912109375,-0.6200906311959028,0.3453349479049444,-0.011896189498901366
1713449203976232700,3.546232666015625,-0.49660395225882525,0.3427919123586267,0.10328881729990243
1713449203986305800,3.556305908203125,-0.39025896225869655,0.07401698397770523,0.11924012740850448
1713449203996380000,3.5663798828125,-0.32380408409833905,0.048982788225263356,0.2085653012856841
1713449204006452700,3.57645263671875,-0.27681320034265516,0.0646329964954406,0.3832330091446638
1713449204016525800,3.58652587890625,-0.17723171312808988,0.032571240193769335,0.4289616178795695
1713449204026598700,3.5965986328125,-0.14092705855965615,0.14503412855230272,0.8136848655819893
1713449204036672800,3.6066728515625,-0.06565057604014873,0.37424912689588963,1.207283785918355
1713449204046745900,3.616745849609375,0.24941549032926558,0.10062361667864024,1.5904624345272778
1713449204056818700,3.626818603515625,0.5826683707743883,-0.24455256046801804,2.0698598159193993
1713449204066891800,3.636891845703125,0.47715807803273197,-0.4298701110266149,2.6843916439443825
1713449204076964900,3.64696484375,0.5504103612482547,-0.5801366603396833,2.577622875574231
1713449204087038700,3.657038818359375,0.6277057823747396,-0.10403240220881999,1.5425062128707765
1713449204097111800,3.66711181640625,0.7115186225712299,-0.23125658717378972,-0.16747165887504814
1713449204107184600,3.6771845703125,1.0980021579444408,-1.378030520941317,-1.4634695010349155
1713449204117257700,3.6872578125,1.8809119460344312,-0.3000301175400615,0.016283172411471605
1713449204127331800,3.697331787109375,1.8862310952305792,0.4440662480309605,1.611674733904004
1713449204137404700,3.70740478515625,1.5667250005871056,0.03691533381268382,1.115724861639738
1713449204147477800,3.717477783203125,-0.6369412282317877,-0.6476384902697057,1.1300523699387908
1713449204157550800,3.72755078125,-1.246059214514494,-0.9136087364934384,-1.434887257412076
1713449204167623700,3.737623779296875,-1.0690320840477943,0.14238266419544815,-1.5747060624688862
1713449204177697500,3.747697509765625,-1.1071540171712637,-0.24030096743814647,-1.336226392173767
1713449204187771000,3.75777099609375,1.1478595370471476,-0.2903558418743312,-6.743648330536485
1713449204197843700,3.76784375,2.6706787604123354,-0.06070522859245538,-6.111462772399187
1713449204207916800,3.777916748046875,0.7583926019489765,0.18529753068387508,-3.109791185428202
1713449204217991000,3.787990966796875,-1.2047943071901797,0.09636157531999051,-1.6090949465438722
1713449204228063700,3.798063720703125,-0.32649113122522827,0.0860623726889491,-0.4606520566508174
1713449204238136800,3.80813671875,1.864094082224369,-0.4244769467461854,1.244582127699256
1713449204248209700,3.818209716796875,2.9985955405265092,-0.394335490982607,1.436736246279627
1713449204258282800,3.82828271484375,2.077812236228585,-0.07755268382318317,0.9828545605465769
1713449204268356900,3.83835693359375,0.42660161074995995,0.19002981990277765,0.7222928223028778
1713449204278429700,3.8484296875,-0.5370569586783647,0.2768932798415422,0.6277900996573269
1713449204288502800,3.858502685546875,0.061386488854885096,0.1855285629607737,0.27822452844530343
1713449204298576000,3.868575927734375,1.8882506183594465,-0.003077142423018813,0.09229849059954286
1713449204308649700,3.878649658203125,1.7839999702900646,-0.23391470046713947,0.491518611818552
1713449204318722800,3.888722900390625,-0.04124912523329258,-0.08566248665116727,0.8298629701837896
1713449204328795600,3.898795654296875,-1.0131576366126536,0.2802490200102329,0.2103691358372569
1713449204338868700,3.90886865234375,-1.0338777685582636,0.007954320005327463,-0.2686183495797217
1713449204348941800,3.91894189453125,-1.192426993048191,-0.003374371803924441,-0.3842421861872077
1713449204359015700,3.929015625,-1.3132739711314438,-0.008115136590227483,-0.12901201822981237
1713449204369088800,3.9390888671875,-1.2554016278773545,0.008021832283586263,0.010373802237212657
1713449204379161900,3.949161865234375,-1.1926830136358737,0.024251228681206702,-0.00556786326020956
1713449204389234700,3.959234619140625,-1.1817226436823607,0.01583338281735778,0.02108443521335721
1713449204399308800,3.969308837890625,-1.0005337173610924,0.05617839881777763,0.02396086743250489
1713449204409382000,3.9793818359375,-0.7370487851470708,0.10195406156480312,0.025936551419645546
1713449204419454700,3.989454833984375,-0.5324602785378694,0.017711670844629407,0.037731472501158714
1713449204429527800,3.99952783203125,-0.21317162603735923,-0.04086830922216177,0.16404986773282287
1713449204439601700,4.0096015625,0.12330839976072311,-0.10536562357395887,0.28229353144988417
1713449204449674800,4.0196748046875,0.49046179624199865,-0.12141907888278364,0.21742285374104975
1713449204459747800,4.029747802734375,0.655831222140789,-0.05453852265626192,0.1309532154254615
1713449204469820700,4.039820556640625,0.7119400628536939,-0.019441636442393065,0.0685430826112628
1713449204479893800,4.049893798828125,0.645844081133604,-0.025179157181084155,0.010451835909485816
1713449204489967900,4.0599677734375,0.533688359028101,-0.03980988621041179,0.06752484547942876
1713449204500040700,4.070040771484375,0.5366676670998335,-0.07605258145853877,0.1083598369538784
1713449204510113800,4.08011376953125,0.5869558388352394,0.04509498700648546,0.028233284054696557
1713449204520186600,4.0901865234375,0.443086297082901,0.15001615474857388,-0.004155366113781929
1713449204530260700,4.1002607421875,-0.0077437459945678706,0.10511500981375574,0.03753039697110653
1713449204540333800,4.110333740234375,-0.4048135573118925,0.10517711526453494,0.053553018750250335
1713449204550406700,4.12040673828125,-0.6019856501847505,0.14522548640593885,0.04856996964067221
1713449204560480000,4.13047998046875,-0.819138454812765,0.07107830017730593,-0.09924509486705065
1713449204570552800,4.140552734375,-0.6799784059256315,0.18482026856094597,-0.29001448109075423
1713449204580626700,4.150626708984375,-0.6582423749357461,0.13369703424088655,-0.2448223173201084
1713449204590699800,4.16069970703125,-0.8173778748810291,0.006456190402060746,-0.15532733983397484
1713449204600772900,4.17077294921875,-1.0472148045152425,0.07093070840016007,-0.057870881949365134
1713449204610845700,4.180845703125,-1.0099106175154446,0.18811251503936946,-0.07524009603187441
1713449204620919800,4.190919921875,-0.9608224692195654,0.1737800383042544,-0.14821999204680322
1713449204630992600,4.20099267578125,-0.8829092084556818,0.011837518114224076,-0.261563316501677
1713449204641065500,4.2110654296875,-0.3547691312044859,0.015168927559256553,-0.14834595651403068
1713449204651138600,4.221138671875,0.03881166895329952,0.11239515688456594,-0.20134747886136173
1713449204661211600,4.231211669921875,0.1037766008168459,-0.07066131687425077,-0.3748135558456182
1713449204671285500,4.241285400390625,0.8539642690002918,-0.8864066951826214,-0.8170962814606726
1713449204681358600,4.251358642578125,2.6227304298013445,-0.5029406079344451,-1.0540880512855946
1713449204691431400,4.261431396484375,-1.2026076108008623,-0.5806752241957932,3.396317678272724
1713449204701504800,4.2715048828125,-2.2186825961649417,1.9002958609402179,0.7009497361533343
1713449204711578600,4.28157861328125,0.35680151381492614,-0.03227130739912391,-0.26088907050192356
1713449204721651500,4.2916513671875,-0.8274404192119836,0.028960063959285614,-0.21832857040911913
1713449204731724800,4.301724853515625,-0.6781389155387878,0.04649513612799346,-0.5315484243899583
1713449204741797600,4.311797607421875,1.1245189934700728,0.05956891803890466,-0.22181363604590296
1713449204751871500,4.32187158203125,1.7574246825754642,0.1408768627423793,-0.10733984625637531
1713449204761944600,4.331944580078125,1.4954256050050259,-0.077716203821823,0.05859758878871798
1713449204772017700,4.342017578125,1.0439642782866954,-0.3192112033501267,0.2965292698122561
1713449204782090800,4.3520908203125,1.3127970012694596,-0.2508721919436008,0.4370160372585058
1713449204792163600,4.36216357421875,0.8211036174058913,-0.4276769848965108,0.005192307946085929
1713449204802237700,4.37223779296875,-0.8672866919100284,-0.30733437613882125,-0.3805705119371414
1713449204812310800,4.382310791015625,-0.9384861342489719,0.11193944900631904,-0.3848514041267335
1713449204822383600,4.392383544921875,0.36678690125644203,0.4533453868992626,-0.1507655848763883
1713449204832456700,4.402456787109375,1.3562141181915999,0.2148421895980835,-0.22233196083158252
1713449204842530800,4.41253076171875,0.839480401095748,-0.039715778186172244,-0.4284476770080626
1713449204852603600,4.422603759765625,-0.3439636595517397,-0.18239092252217232,-0.12380305140987038
1713449204862676700,4.4326767578125,-1.0922253281086682,-0.04361921536549926,0.019324878194928168
1713449204872749600,4.44274951171875,-0.8723094885081052,0.23183774806261062,-0.5952034426987171
1713449204882822700,4.45282275390625,-0.3337748584926128,0.5527585318095982,-1.4874788837842643
1713449204892896800,4.462896728515625,-0.2592611770391464,0.7409904354449361,-1.911074298455566
1713449204902969600,4.472969482421875,-0.3326134134978056,0.5625840525142848,-1.7201573204547165
1713449204913042400,4.48304248046875,0.025787352207303046,0.11380670418292284,-1.4035327725969253
1713449204923115800,4.49311572265625,0.14601882874071598,-0.2687021554056555,-0.9011571050688624
1713449204933189600,4.503189697265625,-0.186420397233963,-0.10568418800383805,-0.5460774466104805
1713449204943262500,4.513262451171875,-0.4201291998654604,0.4402553114406764,-0.040895489490032196
1713449204953335600,4.52333544921875,0.19080489592850208,0.34614275715649123,0.8686445362597703
1713449204963408600,4.53340869140625,1.2369570396482943,-0.4170597292922437,2.1046533352725207
1713449204973481700,4.543481689453125,1.0867360830426216,-1.0905349638689308,2.342677663015574
1713449204983555600,4.5535556640625,0.35061668770015236,-1.058243563529849,1.6929118783935904
1713449204993628700,4.563628662109375,0.3103548199385404,-0.4556348130106926,0.9783835526123642
1713449205003701800,4.57370166015625,0.4140612781286239,-0.14232348135411738,0.8015154120996594
1713449205013774600,4.583774658203125,0.276309926995635,-0.2384170533876866,1.0225777913868426
1713449205023848400,4.593848388671875,0.2785638434022665,-0.4467385359801352,1.2334157137796282
1713449205033921800,4.603921875,0.38478491476178167,-0.3703299076255411,0.9767004218310117
1713449205043994600,4.61399462890625,0.4215823212832212,-0.11932144901640712,0.4448803408928215
1713449205054067700,4.624067626953125,0.5531675510019064,-0.3073455551199615,0.1369168000049889
1713449205064141800,4.634141845703125,0.4117494940549135,-0.4211257366221398,-0.33735417828410863
1713449205074214700,4.644214599609375,0.05475274992883205,0.07326843063272535,-0.5802744613751769
1713449205084287700,4.654287841796875,-0.4470072699189186,0.2533436235584319,-0.2652576409749687
1713449205094360600,4.664360595703125,-0.18455752597153186,0.045022506292164324,-0.14564210438281297
1713449205104433700,4.67443359375,-0.27040800947546956,0.006583250847831368,-0.32597572904899713
1713449205114507800,4.6845078125,-0.550154340660572,0.24222068345434963,-0.5362627395607531
1713449205124580600,4.69458056640625,-0.7229097851574421,0.5779120430927723,-0.6308550401858986
1713449205134653700,4.70465380859375,-0.6692120972394943,0.6715048843517899,-0.35092779947593805
1713449205144726800,4.714726806640625,-0.6164718561768532,0.5212292749494314,-0.010793781214952468
1713449205154800600,4.724800537109375,-0.2844318586528301,0.195674547791481,0.18724311179369688
1713449205164873700,4.734873779296875,-0.1491156257122755,-0.2686395019656047,0.5116546602658927
1713449205174946600,4.744946533203125,-0.2774970909535885,-0.3608565613593906,0.47130599100366233
1713449205185019600,4.75501953125,-0.05413081863820553,-0.15426022205911577,0.1738980386607349
1713449205195092700,4.7650927734375,0.09953004928827285,0.15649126904681324,-0.0964478653639555
1713449205205166600,4.77516650390625,0.08948387157022952,0.4157129908584058,-0.3472264607399702
1713449205215239400,4.785239501953125,0.14172434641718865,0.4750316969959065,-0.2198028807453811
1713449205225312800,4.795312744140625,0.5419926615148782,0.16268647042512893,-0.08227817797511816
1713449205235385600,4.805385498046875,0.545752890831232,-0.27048622581083326,0.1722375581026077
1713449205245459500,4.81545947265625,0.2607341722011566,-0.4594760351413861,0.42559652536064385
1713449205255532800,4.82553271484375,0.31348610370159147,-0.15576368542462588,0.1999924109905958
1713449205265605600,4.835605712890625,0.6219423965424299,0.29670780471693725,-0.17265198412239552
1713449205275678700,4.8456787109375,0.8688847747564316,0.21146321468427776,-0.020990619450062514
1713449205285751600,4.85575146484375,0.8284639170408249,0.04613605702463537,0.22530966146811843
1713449205295825700,4.86582568359375,0.7987316266000271,-0.2042351631268859,0.5220402990713715
1713449205305898800,4.875898681640625,0.9048363781034946,-0.5285319991782307,0.6477715420648456
1713449205315971600,4.8859716796875,0.9526642972052097,-0.586251124631986,0.6773794754736125
1713449205326044700,4.896044677734375,0.8635533506006002,-0.4403280844159424,0.5360433977216482
1713449205336118800,4.906118896484375,0.8024778273910284,-0.29637565015312284,0.31068653611093755
1713449205346191600,4.916191650390625,0.7105389638841152,-0.19379823252558706,0.1589037370160222
1713449205356264700,4.9262646484375,0.6381558647185563,-0.11514953362662345,0.031894144649803634
1713449205366337500,4.936337646484375,0.5522364076316356,-0.08615575006082654,0.10144494299888611
1713449205376410600,4.94641064453125,0.4705307688474655,-0.18514880639556794,0.21908289590775964
1713449205386484700,4.956484619140625,0.3344979120701551,-0.26157632211372256,0.17584142781347034
1713449205396557600,4.9665576171875,-0.0025181203007698058,-0.357933367389068,0.1985875126287341
1713449205406630700,4.976630615234375,-0.35943303136229515,-0.3024580022741109,0.17481237702667712
1713449205416703700,4.986703857421875,-0.4661117833614349,0.1114561407350935,-0.22735957973524926
1713449205426777600,4.996777587890625,-0.49771279028356075,0.33537067631669343,-0.29607933408766984
1713449205436850400,5.006850341796875,-0.5751134253501892,0.273846843084041,-0.026521803961694238
1713449205446923800,5.016923828125,-0.5771452234387398,0.23763688106173647,0.32929128333777186
1713449205456996600,5.02699658203125,-0.6586912877470255,0.19265994921065865,0.24606208824813364
1713449205467070500,5.037070556640625,-0.6277285787284373,0.18131985922455787,-0.22881372406631706
1713449205477143600,5.0471435546875,-0.5112199221104383,0.3294730696454644,-0.38557285026907917
1713449205487216600,5.057216552734375,-0.705585725390911,-0.09258388341218232,0.06001257015317678
1713449205497289700,5.067289794921875,-0.6304629721283912,0.03354461527056992,0.40868133865594863
1713449205507362600,5.077362548828125,1.0934048932820557,0.5799406993761659,0.7685556840449571
1713449205517436700,5.087436767578125,-0.4957879597008228,-0.1175667508361861,-0.4994117031559348
1713449205527509800,5.097509765625,-0.5086994637221097,0.0295614639185369,-1.241495267599821
1713449205537582600,5.10758251953125,0.2589735922694206,0.06169073249846697,-0.2091775879651308
1713449205547655700,5.11765576171875,0.02943359975516796,-0.0794005767121911,-0.2730971024289727
1713449205557729800,5.127729736328125,0.06477320868372917,-0.0339414325684309,0.005391337649524212
1713449205567802600,5.137802734375,0.08266776181459426,-0.047985009359568356,-0.10900807172954081
1713449205577875700,5.147875732421875,0.1103641625136137,-0.019362689454667268,-0.11731631973907351
1713449205587948500,5.157948486328125,0.07235913376808166,-0.06357245459184051,0.0636325142160058
1713449205598021600,5.168021728515625,0.06972060195803642,-0.08020582868047058,0.14982830402627587
1713449205608095700,5.178095703125,-0.043269232884049415,0.027574674015492198,0.05247384521141648
1713449205618168600,5.18816845703125,-0.0952577787965536,0.04598583489898592,-0.0040429917804896826
1713449205628241700,5.19824169921875,-0.06469897440373897,-0.012174056592211126,-0.06063757018372416
1713449205638314800,5.208314697265625,-0.06867781490683555,-0.07620236519277096,-0.04703180028796196
1713449205648388900,5.218388916015625,-0.05492518388628959,-0.057420105974562465,-0.002280950544029474
1713449205658462000,5.2284619140625,0.01346504625082016,-0.000040551206097006796,0.05192191041707992
1713449205668535000,5.23853515625,-0.014195114091038703,-0.026601627732254562,0.03636047640889883
1713449205678608000,5.24860791015625,-0.0975759926110506,0.0010458923237398267,0.030423049183934923
1713449205688681700,5.258681640625,-0.21764497205913066,-0.011584566266462206,0.03159253135472536
1713449205698755000,5.268755126953125,-0.2954454200983047,0.012853344093263148,-0.01633066481500864
1713449205708828000,5.278827880859375,-0.3680412852317095,0.08947554213330149,-0.05239478862583637
1713449205718901000,5.28890087890625,-0.38426819741129875,0.10779190087281167,-0.07735562688112259
1713449205728973800,5.298973876953125,-0.3331418212860823,0.11194207935482263,-0.06264627965763211
1713449205739048000,5.3090478515625,-0.30896482688486576,0.10685317698428407,-0.06284487096965313
1713449205749121000,5.31912109375,-0.32036592634320255,0.13429163913317024,-0.05432283407896757
1713449205759193900,5.32919384765625,-0.2588426593661308,0.10318433401212096,-0.018458178362995386
1713449205769267000,5.339266845703125,-0.16829671152234077,0.06506663867235184,0.01988324273005128
1713449205779341000,5.349341064453125,-0.2559276487022638,0.043439986341074106,0.053720776532590386
1713449205789414000,5.359413818359375,-0.3788566937565803,0.051204994319379325,0.03908624811097979
1713449205799487000,5.369487060546875,-0.40174014121592044,0.04505299276197329,0.039123072990030046
1713449205809559800,5.379559814453125,-0.32168168511688705,0.02658142519444227,0.018247019830346108
1713449205819633000,5.3896328125,-0.24611352617442606,0.020340996434912086,-0.008806114529073239
1713449205829707000,5.39970703125,-0.2023632317751646,0.02724164266884327,-0.026870325138419866
1713449205839779800,5.40977978515625,-0.16426760213673114,0.04541004430502653,-0.023496172530204057
1713449205849853000,5.41985302734375,-0.17920330546200275,0.044340296181663866,-0.009927812035381794
1713449205859926000,5.429926025390625,-0.1853483840882778,0.04301745008006692,-0.013836802172660827
1713449205869999900,5.439999755859375,-0.11202245111465453,-0.0030050270348787305,-0.015585691666603087
1713449205880073000,5.450072998046875,0.017002572727203367,-0.03778839032016695,-0.0011002163268625735
1713449205890146000,5.46014599609375,0.07862637746930122,-0.030116467452794313,0.007969371443986892
1713449205900219000,5.470218994140625,0.0922995135128498,-0.02533515146039426,0.005158697937428951
1713449205910292000,5.4802919921875,0.060061377730965614,-0.00785641258880496,-0.012574088760465382
1713449205920366000,5.490365966796875,0.04467793063819408,-0.013998933931812643,-0.03233414350226521
1713449205930439000,5.50043896484375,-0.02634440156817436,-0.010058744938671588,-0.032491526021063324
1713449205940512000,5.510511962890625,-0.09045710051655768,-0.0009032324500381946,-0.04616743854358792
1713449205950584800,5.520584716796875,-0.12530512653589249,-0.028164748863130806,-0.031743922524154186
1713449205960659000,5.530658935546875,-0.20016016877293585,-0.012308350496366619,-0.03500248592868447
1713449205970732000,5.54073193359375,-0.21429332354366779,-0.013586224945075808,-0.03894800868406892
1713449205980804900,5.550804931640625,-0.1538993528574705,0.007265278295241296,-0.042332682686299083
1713449205990878000,5.5608779296875,-0.12175590962171554,0.014492380004562436,-0.015321926163882017
1713449206000952000,5.5709521484375,-0.016171382600069045,-0.031542591265775265,0.030205899301916358
1713449206011025000,5.58102490234375,0.09426292254030703,-0.03804236508123576,0.05507262953296303
1713449206021098000,5.591097900390625,0.10951952838301658,-0.03177775172851979,0.052604047462344164
1713449206031170800,5.6011708984375,0.08122574631273746,-0.007698555145971476,0.028612200369685887
1713449206041244000,5.611243896484375,0.012029460489749908,-0.009443097258359193,0.04066489560455084
1713449206051318000,5.621318115234375,0.03760346220731735,-0.009505421904847025,0.01336304718106985
1713449206061390800,5.631390869140625,0.12729367000460623,-0.009794833305478095,0.022007249146699905
1713449206071464000,5.6414638671875,0.21197160259783265,-0.011311777207069098,0.05422828766331076
1713449206081537000,5.651537109375,0.3365045757174492,0.008266381629183889,0.0749105718165636
1713449206091611000,5.66161083984375,0.4175087882339954,0.0002601487735286355,0.1069205979309976
1713449206101684000,5.67168408203125,0.3685229312688112,-0.007277772450633347,0.14860168484076858
1713449206111757000,5.681757080078125,0.1538905850291252,0.0010460749868303537,0.1269343351729214
1713449206121830000,5.691829833984375,-0.055657005292177195,-0.0071541095383465285,0.05933861641436815
1713449206131903000,5.701903076171875,-0.23743805228769777,-0.020606880829483268,0.031210546299815175
1713449206141976800,5.711976806640625,-0.32971243135929107,-0.016509674643725155,-0.14560615628659723
1713449206152050000,5.7220498046875,-0.27737551040053365,-0.03209149385280907,-0.1435569686718285
1713449206162123000,5.732123046875,-0.12415887911021709,-0.02517857265919447,-0.1715577591449022
1713449206172195800,5.74219580078125,-0.052041152882575985,-0.008605404325202107,-0.1827202275417745
1713449206182270000,5.75227001953125,-0.0055716626524925225,0.016506021381914614,-0.1792746171325445
1713449206192343000,5.762343017578125,-0.06207797825038433,0.015248678264580666,-0.1487510301835835
1713449206202415900,5.772415771484375,-0.12663432931303978,0.009682970428839326,-0.14529782098978758
1713449206212489000,5.782489013671875,-0.12196809106767177,0.0080403177883476,-0.1327811615049839
1713449206222561800,5.792561767578125,-0.1933785458087921,0.005502981330454349,-0.10281111678555607
1713449206232636000,5.802635986328125,-0.18984218837618827,0.008034253373742103,-0.046723757252097126
1713449206242709000,5.812708984375,-0.09980419005453586,-0.003394976200535893,0.0015896072790026663
1713449206252781800,5.82278173828125,0.03856500071585178,-0.034757059800252316,0.07317249597758055
1713449206262855000,5.83285498046875,0.1607359208792448,-0.0343606808938086,0.12304960269406437
1713449206272929000,5.842928955078125,0.2900964602857828,-0.04997282217592001,0.14831190811395645
1713449206283001900,5.853001953125,0.379092256078124,-0.06403744175508617,0.13174714228212833
1713449206293075000,5.863074951171875,0.41393326783478257,-0.06101743634678423,0.14963234306275844
1713449206303148000,5.87314794921875,0.4294371264368295,-0.04315481272414327,0.157044665145874
1713449206313220900,5.883220947265625,0.3873369373321533,-0.027265388870611786,0.1376066819652915
1713449206323295000,5.893294921875,0.35506256119310853,-0.015777853237837553,0.12087357382923364
1713449206333367800,5.903367919921875,0.27526187924742695,-0.021485709490627048,0.1067760748937726
1713449206343441000,5.91344091796875,0.18499357930123805,-0.003512245904654264,0.07949760734587907
1713449206353514000,5.923513916015625,0.07829553807973862,0.001797477876022458,0.05937076511830091
1713449206363587800,5.933587890625,-0.004438859230279923,0.010976955762133,0.04015533864721656
1713449206373661000,5.943660888671875,-0.06218026958107948,0.01387874161824584,0.03060892714485526
1713449206383734000,5.953734130859375,-0.09472294126749038,0.0145002345174551,0.0028916297882795334
1713449206393806800,5.963806884765625,-0.05583762255609035,-0.014275193589925765,-0.02053513076752424
1713449206403881000,5.973880859375,-0.004451718711853027,-0.04434102683402598,0.0030900749698281288
1713449206413954000,5.9839541015625,0.008911620730161666,-0.008956628915667533,0.01362929690182209
1713449206424027000,5.99402685546875,-0.08444237027168273,0.01546528015732765,0.01949906571805477
1713449206434100000,6.004099853515625,-0.1774140839576721,0.006247242092806846,-0.004305003717541694
1713449206444172800,6.0141728515625,-0.18944705157876013,0.006961436510458588,0.005275456184893846
1713449206454247000,6.024246826171875,-0.17540742031037806,0.0035248861905187367,-0.021219752030819654
1713449206464320000,6.034320068359375,-0.15724807876348496,-0.003744739486277103,-0.04749459549412131
1713449206474392800,6.044392822265625,-0.1329343062400818,0.010513009778503328,-0.04282748046591878
1713449206484466000,6.0544658203125,-0.09061433690488338,0.004631623589713126,-0.0211849729783833
1713449206494540000,6.0645400390625,-0.09411036232709884,0.013735552021581679,0.002261661321669817
1713449206504612900,6.07461279296875,-0.09240122032165526,0.01593392058238387,-0.02538227853775024
1713449206514686000,6.08468603515625,-0.029833412727713584,0.003752192140370607,-0.026524726571142673
1713449206524758800,6.0947587890625,0.013951368463039397,-0.014060381795465945,-0.039814123994112015
1713449206534832000,6.10483203125,0.08593290109038353,-0.015998345854412763,-0.009428776472061872
1713449206544906000,6.114906005859375,0.13660335014164446,-0.02313859126418829,0.03665229896232486
1713449206554978800,6.124978759765625,0.14412205520868301,-0.015374222606699912,0.030319881070405244
1713449206565052200,6.13505224609375,0.12788286806941032,0.0016547084044665097,0.015257628756016491
1713449206575125000,6.145125,0.08596329622864722,0.0007164959725923836,-0.0036890637762844562
1713449206585198800,6.15519873046875,0.04520049320757389,-0.006425576068088412,-0.012846914352476596
1713449206595272000,6.16527197265625,0.027755437409877775,0.00052110126465559,-0.0022945406779646873
1713449206605345000,6.175344970703125,0.007584756040573119,-0.017367898908257483,0.00886924289315939
1713449206615417900,6.18541796875,-0.005669277808070182,0.015130202984064816,-0.0024482699349522587
1713449206625491000,6.195490966796875,-0.022163316491246223,-0.008681081643607466,0.01619929352030158
1713449206635565000,6.20556494140625,-0.04487608355879783,-0.005944952944293618,0.001765256106853485
1713449206645637600,6.2156376953125,-0.04825228199362754,0.02016110982336104,0.005263035094738007
1713449206655710700,6.225710693359375,-0.045133857712149617,0.019105116230715063,0.0008357201717793941
1713449206665783600,6.235783447265625,-0.04438566969335079,0.0075306147005409,0.0021028174981474876
1713449206675857700,6.245857666015625,-0.025217443364858625,0.014584917126223444,0.019769114831089972
1713449206685930800,6.2559306640625,-0.0103740944981575,0.018359540294110775,0.020148761798441408
1713449206696003600,6.266003662109375,0.011376549538969993,-0.007916527011897415,0.030449644929915663
1713449206706076700,6.27607666015625,0.05983341419398784,-0.02534033909216523,0.03183598472177982
1713449206716149500,6.2861494140625,0.07510872473716736,-0.013620602138713002,0.036964433651417494
1713449206726223600,6.2962236328125,0.07019406468868256,0.0006508651241660118,0.03247983558326959
1713449206736296700,6.306296630859375,0.05167115052640438,-0.006125478876661509,0.018217355344444512
1713449206746369500,6.31636962890625,0.022666005316376685,-0.019209215926006436,0.003974456588923931
1713449206756442600,6.326442626953125,0.040049686315655704,-0.015901406552270052,0.028342297387123107
1713449206766516700,6.336516845703125,0.030303368327021598,-0.014662859466951339,0.028997254164516924
1713449206776589600,6.346589599609375,0.009130231916904449,-0.018033888536319136,0.01688537608832121
1713449206786662700,6.35666259765625,0.06316343539953231,-0.029201033108308908,0.01960106478780508
1713449206796735500,6.366735595703125,0.06472410884499549,-0.010871230365335941,0.015196107827126978
1713449206806808800,6.376808837890625,0.04972878428697586,-0.01773877804726362,-0.008327975623309612
1713449206816882700,6.386882568359375,0.0071603931486606594,-0.00373648311458528,-0.007267945176362991
1713449206826955500,6.39695556640625,-0.014376315876841544,0.00032031799554824825,-0.005747311480343341
1713449206837028900,6.40702880859375,-0.04080722668468952,0.0071400079477578395,-0.024232816241681575
1713449206847101700,6.417101806640625,-0.05318973839581012,-0.0047325814798474305,-0.005391337649524212
1713449206857175600,6.427175537109375,-0.0480623123794794,0.00016403145529329775,-0.013480097689479588
1713449206867248600,6.43724853515625,-0.016003624817728997,0.002939560583233833,-0.0027110125243663785
1713449206877321700,6.44732177734375,-0.01879413231909275,-0.0012818565040826797,-0.004111380841583013
1713449206887394600,6.45739453125,-0.0007867664635181426,-0.01319103334872052,-0.02407090367823839
1713449206897468700,6.46746875,0.011374795973300933,-0.004806669629365205,-0.00955737128779292
1713449206907541800,6.477541748046875,0.020857494589686394,-0.016627528869733215,-0.007387479902803897
1713449206917614600,6.487614501953125,0.013759060761332511,0.00469699870981276,0.006169628545641899
1713449206927687700,6.497687744140625,0.01564882003068924,-0.00498195313103497,0.006961509575694799
1713449206937760500,6.507760498046875,0.024886603975296018,-0.017385872956365345,0.017423136226832867
1713449206947834600,6.517834716796875,0.05286883587837219,-0.009131912417337297,0.00600640080794692
1713449206957907700,6.52790771484375,0.04684826041460037,-0.000017243395745754242,0.02978445901945233
1713449206967980500,6.53798046875,0.061758244776725764,-0.009042626698687672,0.03149930011332035
1713449206978053600,6.5480537109375,0.04807926351428032,-0.01584096333561465,0.018892770387977362
1713449206988127700,6.558127685546875,0.026926585370302198,-0.01185125437863171,0.02060512726381421
1713449206998200600,6.56820068359375,0.004589665877819061,-0.012543474426493048,0.010845803663134574
1713449207008273700,6.578273681640625,-0.003540449085831642,-0.020854352784529327,-0.0010974398478865624
1713449207018346500,6.588346435546875,0.0038128362864255903,-0.009318009573966264,0.0008159925580024719
1713449207028419800,6.598419921875,-0.030296938586235046,-0.0121698188085109,0.011199439406394958
1713449207038493700,6.60849365234375,-0.03429156118035316,-0.01174472526423633,0.00887654941678047
1713449207048566500,6.61856640625,-0.04328092332184314,0.0040476679556071754,-0.0038014381095767017
1713449207058639600,6.6286396484375,-0.038818098694086076,0.016653393963351845,0.01321121762022376
1713449207068712700,6.638712646484375,-0.0340460619866848,-0.0030078583127819,-0.002905804444104433
1713449207078786600,6.64878662109375,-0.02940262009501457,0.016618761041387913,0.00841126999258995
1713449207088859600,6.658859619140625,-0.01783902355134487,0.00875199145535007,0.0035256899081170558
1713449207098932700,6.6689326171875,-0.006056815820932388,0.008639891116693615,-0.01267243456840515
1713449207109005600,6.679005615234375,0.031227497434616086,0.022140538403857497,0.0008674304842948913
1713449207119078700,6.68907861328125,0.034601942303776737,0.013559957992658018,-0.004731704697012901
1713449207129152500,6.699152587890625,0.04574234499931335,-0.011094371596723794,-0.0015837620601058006
1713449207139225600,6.7092255859375,0.06437631832063198,-0.013484463337343185,-0.0020595628783106803
1713449207149298700,6.719298583984375,0.054736383315920824,-0.020416326693445442,0.0002519289344549179
1713449207159371500,6.72937158203125,0.054774377238750456,-0.0076028762191534035,-0.020837620845437048
1713449207169445600,6.739445556640625,0.04887362876236438,-0.017374675708916036,-0.002681055777519941
1713449207179518700,6.749518798828125,0.03234568780958652,-0.018916370459273458,-0.00009703063368797301
1713449207189591600,6.759591552734375,0.02304477550089359,0.002970978634804487,0.010481938786804675
1713449207199664600,6.76966455078125,0.010650573351979255,0.0029336422991007565,-0.004188683861494064
1713449207209737500,6.779737548828125,0.03295885127186775,-0.00580130668990314,-0.006989274365454912
1713449207219811600,6.7898115234375,0.05944412261545658,-0.027557576750218866,0.002587970666587353
1713449207229884700,6.799884765625,0.03811784147024155,-0.018510273876413703,0.022132775222510098
1713449207239957500,6.80995751953125,-0.032795185142755506,-0.0019990648627281186,0.015736206053197383
1713449207250030800,6.82003076171875,-0.05681377411186695,-0.0005470942224375903,0.005194792164117098
1713449207260104700,6.830104736328125,-0.007393617382645607,-0.012838785844948143,0.003987754461914301
1713449207270177500,6.840177490234375,0.026201778227090834,-0.005719674554746598,0.009057897333055735
1713449207280250600,6.850250732421875,0.037029461711645124,-0.004303907738998532,0.003193243083357811
1713449207290323700,6.86032373046875,0.017577742266654966,-0.013376271988824009,-0.004499649506807327
1713449207300397600,6.8703974609375,0.046508068674802776,-0.027933844450395554,0.02334302779510617
1713449207310470700,6.880470703125,0.05440788201391697,-0.019899170951545236,0.0358944663323462
1713449207320543500,6.89054345703125,0.05589899735450744,-0.01958689013198018,-0.002847790646553039
1713449207330616800,6.900616943359375,0.029716508349776266,-0.019124533317238093,0.013026947094500065
1713449207340689700,6.910689697265625,0.0385252532273531,-0.014230842991545796,0.012638240037858486
1713449207350763500,6.920763427734375,0.051587563896179196,-0.013905848820880055,0.008934417083859444
1713449207360836900,6.9308369140625,0.03223404412865639,-0.013216916708648205,0.01794467588290572
1713449207370909700,6.94090966796875,0.03137479695081711,-0.0077974489431828255,0.005952478663623332
1713449207380982500,6.950982421875,0.020460604226589203,-0.011587415810674429,0.009513970537483691
1713449207391056600,6.961056640625,0.0013385551273822783,0.002529902070108801,-0.00645998979434371
1713449207401129700,6.971129638671875,-0.0010258359163999556,-0.009560951484367251,-0.01823591391444206
1713449207411202600,6.98120263671875,-0.018005612289905548,0.009139365071430802,-0.04040726758167147
1713449207421275600,6.991275634765625,-0.014866729742288589,0.00821596661619842,-0.02640197697430849
1713449207431348500,7.001348388671875,-0.009138415223360062,0.014107508872821927,-0.014031009570509194
1713449207441422600,7.011422607421875,-0.015046762484312057,-0.019784677726402876,-0.030465865412354468
1713449207451495700,7.02149560546875,-0.018766075268387795,-0.009948763491865248,-0.029563802006095645
1713449207461568500,7.031568603515625,-0.024312018957734105,0.014045987943932412,-0.017494740158319474
1713449207471641600,7.0416416015625,-0.035735914769768715,-0.0034085480681620537,0.0021456337265670297
1713449207481715700,7.0517158203125,-0.0067740241795778275,-0.02193789197122678,0.02875380079746246
1713449207491788500,7.06178857421875,0.008874795851111412,-0.015272241803258656,-0.0011903788283467293
1713449207501861600,7.071861572265625,0.002710428002476692,-0.004716287932172417,0.008329144667088985
1713449207511934700,7.081934814453125,0.02079436622560024,-0.011963847907632589,-0.00025046762973070144
1713449207522007800,7.0920078125,0.07763678191006183,-0.015614625500142573,0.01841331630796194
1713449207532081700,7.10208154296875,0.07228373044431209,-0.011125716583058238,0.018092413790524006
1713449207542154500,7.112154541015625,0.07130114914774895,-0.014195680346619336,0.0030910978831350804
1713449207552227800,7.122227783203125,0.03915127617120743,-0.011471315150335431,0.009833119489252567
1713449207562300700,7.13230078125,0.021947043392062184,0.006069017715379595,0.0038002690657973287
1713449207572374500,7.14237451171875,0.024406711503863334,0.0035206666731275615,0.010444967777281999
1713449207582447600,7.152447509765625,-0.0032207156121730803,-0.0015573672435246408,-0.006655804627388715
1713449207592520700,7.162520751953125,0.00192015440762043,-0.00914184928946197,0.007543254986405372
1713449207602593500,7.172593505859375,0.013696516919136047,-0.026543723532557486,0.0018754384830594062
1713449207612667600,7.182667724609375,0.01752747338414192,-0.008138809726759792,-0.020014906285703182
1713449207622740700,7.19274072265625,0.01896890436410904,-0.02549039682103321,-0.0025499767437577245
1713449207632813600,7.2028134765625,0.016385902133584023,-0.023532193691655993,0.0021545476853847504
1713449207642886700,7.21288671875,0.014751578930020331,-0.01024380091568455,0.0003511515252292156
1713449207652959500,7.22295947265625,0.009414894077181815,-0.009444485497847198,-0.0176285956710577
1713449207663033600,7.23303369140625,0.0027256255716085432,-0.017244637854769825,-0.006709872902184724
1713449207673106700,7.243106689453125,0.008171031495928764,-0.020355098025500774,-0.021136603792011738
1713449207683179500,7.253179443359375,0.0010264204382896423,-0.0007611205656081438,-0.026924539543688297
1713449207693252600,7.263252685546875,0.003453355324268341,-0.007589578346163034,-0.020422610303759574
1713449207703326500,7.273326416015625,-0.006536123770475387,-0.006210453746374696,-0.006200023683905601
1713449207713399600,7.283399658203125,-0.008490764969587325,0.013241758888959884,-0.02676058115363121
1713449207723472600,7.29347265625,0.020533669462800025,-0.0010314619395881892,-0.006650982321798801
1713449207733545500,7.30354541015625,0.035762802776694295,-0.0092466979034245,0.009850801276415586
1713449207743618600,7.31361865234375,0.036056817287206645,-0.0073369187593460075,0.002743161228299141
1713449207753692700,7.323692626953125,0.03186053464114666,-0.006276723915617913,-0.010518617535382508
1713449207763765500,7.333765625,0.01703296786546707,-0.008774038890376687,0.007690554502606391
1713449207773838600,7.343838623046875,0.03721475515067577,-0.02001044930629432,0.0021494331188499924
1713449207783911400,7.353911376953125,0.04020400009453296,-0.019878182962443678,0.0002918225534260273
1713449207793985500,7.363985595703125,0.025820085433125493,-0.0066374652530997984,-0.0038557986453175543
1713449207804058600,7.37405859375,0.027473113337159155,0.010082271944731474,0.011295300996303558
1713449207814131500,7.38413134765625,-0.00004091653227806091,-0.0040457682594656945,-0.01660509784221649
1713449207824204500,7.39420458984375,-0.01196574760377407,0.01784450344406068,-0.006901742212474346
1713449207834278700,7.404278564453125,-0.003553893089294433,0.0000922083280980587,-0.0014697802916169166
1713449207844351500,7.4143515625,0.012235212194919586,-0.004215060411766171,0.007329612235724926
1713449207854424600,7.424424560546875,0.013040098837018012,-0.012544917464908212,-0.010083879379928112
1713449207864497700,7.43449755859375,0.01459434254169464,-0.00703260205052793,-0.010457681128382683
1713449207874570500,7.444570556640625,0.009753916773200035,0.0051954680175520475,0.008447218088805676
1713449207884644600,7.45464453125,-0.008602993172407149,-0.01243979485630989,0.01025149103179574
1713449207894717400,7.464717529296875,-0.01516074425280094,-0.01092118872059509,0.004089899662137031
1713449207904790500,7.47479052734375,-0.001651274338364601,-0.015673369950056075,0.002459521981328726
1713449207914863600,7.484863525390625,0.0019920506000518797,-0.0065410008749924595,-0.006543576424568891
1713449207924937500,7.4949375,0.03411211296021938,-0.013864932288601993,0.008308978661894798
1713449207935010600,7.505010498046875,0.04389408678412437,-0.014478314946591853,0.015298399157822131
1713449207945083600,7.515083740234375,0.008107318609952925,-0.0019427315656095742,0.007788754180073737
1713449207955156500,7.525156494140625,-0.044104514664411544,0.01324417004175484,-0.006366612422466278
1713449207965229600,7.5352294921875,-0.0075707275152206415,-0.013820563423912972,-0.00994344799593091
1713449207975303700,7.5453037109375,0.04795417582988739,-0.010780848668143153,-0.00863134248405695
1713449207985376500,7.55537646484375,0.07026245374977588,-0.009330503729358315,-0.021832330971211195
1713449207995449600,7.56544970703125,0.04885083240866661,-0.01848365986412391,-0.0025632746167480944
1713449208005522400,7.5755224609375,0.024124387431144714,-0.020911252337228507,0.0032264147005975244
1713449208015596500,7.585596435546875,0.02842763758301735,-0.019767781390529125,-0.00716492319330573
1713449208025669600,7.595669677734375,0.007810381489992141,-0.013338570326939225,0.00427621601447463
1713449208035742500,7.605742431640625,0.0020715455770492553,-0.012692381377890706,0.007947451873123646
1713449208045815600,7.615815673828125,0.012204232534766197,-0.010408435159176587,0.001713233658671379
1713449208055889700,7.6258896484375,0.01215045652091503,-0.013082768934965133,-0.0017686171077191829
1713449208065962500,7.63596240234375,0.008945522999763488,-0.01742357461825013,-0.0185217451184988
1713449208076035600,7.64603564453125,0.0006254384219646454,0.000034048400074243547,-0.013772943156212568
1713449208086108400,7.6561083984375,-0.0014443535894155502,0.0020812815197743476,-0.010494359876960515
1713449208096181500,7.666181396484375,0.007692892590165138,-0.015153145468235015,-0.011204407842457294
1713449208106255600,7.676255615234375,0.016123451805114746,-0.00594442322133109,-0.009571984335035085
1713449208116328400,7.686328369140625,0.007781155395507812,0.0017725626304745674,-0.0123838268853724
1713449208126401500,7.696401611328125,0.030550036564469335,0.0023828765485435725,-0.0013511223480105398
1713449208136474600,7.706474609375,0.021741291686892508,-0.010897826111316681,-0.0060541854724287985
1713449208146548500,7.716548583984375,0.03342237713038921,0.008949687718227505,0.0036947628647089003
1713449208156621600,7.72662158203125,0.02773030296862125,0.0035789544653147456,0.01199409691542387
1713449208166694700,7.736694580078125,0.02521510527729988,-0.020026140065770595,0.021333441538363695
1713449208176767500,7.746767578125,0.014302666118741035,-0.03463219131156802,0.01701075603365898
1713449208186841600,7.756841552734375,0.025381694015860556,-0.028567411379888653,0.009720891286432743
1713449208196914700,7.766914794921875,0.042569560182094575,-0.010353782362490892,0.009462532611191272
1713449208206987500,7.776987548828125,0.03417933297753334,-0.011138649129867553,0.00526245057284832
1713449208217060600,7.787060546875,0.00008124854266643523,-0.008578808579221367,-0.012731179018318653
1713449208227133400,7.797133544921875,-0.006796236011385917,-0.006063903148844838,-0.00985387001633644
1713449208237207600,7.80720751953125,0.03284253141582012,-0.005576612822245806,-0.004650894545763731
1713449208247280600,7.81728076171875,0.01390460671186447,-0.014953531242907046,-0.01211494681611657
1713449208257353500,7.827353515625,0.008311316749453544,-0.010402078483626245,-0.021363836676627397
1713449208267426600,7.837426513671875,0.007494739669561386,-0.005731218862067908,-0.01829334319010377
1713449208277500700,7.847500732421875,0.015338438907265663,0.0031114830840379,-0.006133972710371017
1713449208287573500,7.857573486328125,0.007139934882521629,-0.007491944924276322,-0.0038797640427947044
1713449208297646600,7.867646484375,0.021686931151151657,-0.001783504149597138,-0.008365238893777131
1713449208307719400,7.877719482421875,0.01360007080733776,-0.007059855383634567,-0.0036699206843972204
1713449208317792800,7.887792724609375,0.021385902377963065,-0.00828260211162269,-0.015960954719781876
1713449208327866600,7.89786669921875,0.03665770578980446,-0.00521188942939043,0.004077770832926035
1713449208337939500,7.907939453125,0.035301030483841894,-0.010095916877593845,-0.0034898879423737525
1713449208348012500,7.918012451171875,0.030472879675030706,-0.022306451288983224,-0.0037482466176152226
1713449208358085600,7.928085693359375,0.0258504805713892,-0.0123413029178977,0.003660568334162235
1713449208368159500,7.938159423828125,0.009858546191453934,-0.008308156677987425,-0.01065013496056199
1713449208378232600,7.948232666015625,0.0019511340677738189,0.006624971097707748,-0.006577770955115556
1713449208388305700,7.9583056640625,0.000017535656690597534,0.0032286979892291127,-0.028766514148563144
1713449208398378500,7.96837841796875,-0.006117021575570106,-0.010565671547502278,-0.009464578437805175
1713449208408452600,7.97845263671875,0.009146598529815673,0.002995382423698902,0.004625613974034786
1713449208418525400,7.988525390625,0.0025426702201366423,-0.0014533223471604286,-0.013662468519061803
1713449208428598500,7.9985986328125,0.0041524435043334956,-0.0018361293859779834,-0.000001461304724216461
1713449208438671600,8.008671630859375,0.003360416343808174,-0.008359247544407844,0.001728869619220495
1713449208448744400,8.018744384765625,0.008137129226326941,-0.028746695203240958,-0.0019257073655724523
1713449208458818600,8.028818603515624,0.019139000234007834,-0.019649433974176643,-0.0009437105908989906
1713449208468891600,8.0388916015625,0.021459552136063573,-0.026972543403878807,-0.0019198621466755867
1713449208478964500,8.048964599609375,0.029950901627540587,-0.032340920302923765,-0.017718173650652168
1713449208489037600,8.05903759765625,0.0427601143181324,-0.00853738059028983,-0.0015178572170436381
1713449208499111700,8.069111572265625,0.0483849684625864,-0.015410773491114377,-0.0013188275136053562
1713449208509184500,8.0791845703125,0.0341547830581665,-0.019248433691542593,0.005862900684028864
1713449208519257600,8.089257568359375,0.03795768247246742,-0.026647476167976854,0.012239449978619813
1713449208529330400,8.099330322265626,0.019104513442516326,-0.00282855622312054,-0.020907471211254594
1713449208539404500,8.109404541015625,0.017184943556785584,-0.00022314123138785362,-0.01289776775687933
1713449208549477600,8.1194775390625,-0.0035229134291410442,-0.01027748398957774,-0.00539031473621726
1713449208559550500,8.129550537109376,0.004700725036859512,0.0012859481573104857,0.008111410263180732
1713449208569623600,8.13962353515625,0.0027910920232534406,0.008389496552199125,0.0017931670270860194
1713449208579696600,8.149696533203125,-0.009410217902064323,0.014767799412459134,-0.0053531975962221616
1713449208589770500,8.1597705078125,-0.0007926116824150085,0.0025742526684887704,-0.018448241490870713
1713449208599843600,8.169843505859374,-0.004530629166960716,-0.0009382306981831789,-0.003183160080760717
1713449208609916400,8.17991650390625,0.0016658873856067657,-0.004052124935016036,-0.013213263446837663
1713449208619989800,8.18998974609375,-0.010840542966127395,-0.006940229325648397,-0.004707008647173643
1713449208630063600,8.200063720703126,0.005061959564685821,-0.006934091845806688,-0.01029328434690833
1713449208640136400,8.210136474609374,0.03609071955680847,-0.010444675516337156,-0.014250351409614085
1713449208650209500,8.22020947265625,0.051095980986952776,-0.00863492268063128,0.00041997897773981093
1713449208660282400,8.230282470703125,0.0644318479001522,-0.02784033921435475,0.039011721570044754
1713449208670355200,8.240355224609376,0.02423135493695736,-0.016096856059134006,0.01906125882267952
1713449208680429600,8.2504296875,0.005156067588925361,-0.01122976147942245,0.00993102690577507
1713449208690502400,8.26050244140625,0.024169980138540267,-0.021193375480547547,0.02495850016772747
1713449208700575200,8.2705751953125,0.017052841609716415,-0.008865589631348848,-0.010178133534640072
1713449208710648600,8.280648681640624,0.0057160395592451094,-0.026515739547088742,-0.02576820911541581
1713449208720722400,8.290722412109375,0.01579085884988308,-0.006649447951838374,0.008385258768498898
1713449208730795300,8.300795166015625,-0.0034188685327768325,0.019280381466075778,0.00019464578926563263
1713449208740868400,8.310868408203126,-0.022373744371533392,0.019854747287929058,0.012287526904046536
1713449208750941400,8.32094140625,0.051709144449234,-0.021405410796031355,0.012170038004219532
1713449208761015300,8.331015380859375,0.15375380690693854,-0.052371188554540274,0.02450608022511005
1713449208771088400,8.34108837890625,0.2165109995931387,-0.037174788466468454,0.051988545912504194
1713449208781161500,8.351161376953126,0.13215630760490893,-0.015976809876039624,0.0009662146836519241
1713449208791234600,8.361234619140625,0.02304536002278328,0.0034497020624577996,-0.04571311890482902
1713449208801307400,8.371307373046875,0.0012117138773202894,0.021567250294238328,-0.039867315486073494
1713449208811381200,8.38138134765625,0.044481531283259386,0.008745196388382464,-0.023792525128275156
1713449208821454600,8.39145458984375,0.14062135361135006,-0.0016172807372175156,-0.048712739112228155
1713449208831527400,8.40152734375,0.11654372793138026,-0.006521949114650488,-0.030475217762589452
1713449208841600500,8.4116005859375,0.053204935964941975,-0.016160715075582265,-0.026348200960457323
1713449208851674400,8.42167431640625,0.0005523731857538223,-0.002210077264904976,0.005193330859392881
1713449208861747500,8.43174755859375,-0.035305706658959386,0.03200717657022178,0.004902385088801383
1713449208871820500,8.441820556640625,-0.08469839085936545,0.014868994764611124,0.01097147586941719
1713449208881893400,8.451893310546875,-0.12642331691086292,0.023744813529029487,-0.004727320782840252
1713449208891967500,8.461967529296874,-0.16495149274766444,0.021411986667290328,-0.012248071676492691
1713449208902040600,8.47204052734375,-0.1823860271513462,0.015396964161470532,-0.011067045198380946
1713449208912113400,8.482113525390625,-0.22495734089910982,0.01608290059901774,0.006281272226572036
1713449208922186500,8.4921865234375,-0.1884112787902355,0.016309037505090235,-0.020808833142369983
1713449208932259300,8.50225927734375,-0.20131050785183904,0.000056990884244441985,-0.035060499726235865
1713449208942333400,8.51233349609375,-0.17815759580135346,-0.017339403466135262,-0.025022505314648148
1713449208952406500,8.522406494140625,-0.13011165003478525,-0.010897314654663204,-0.0028679566517472266
1713449208962479400,8.532479248046876,-0.06960545114576816,-0.007910261667892337,-0.009991817182302474
1713449208972552400,8.542552490234375,0.0035579847425222396,-0.024152700210176407,-0.019747341390699148
1713449208982626600,8.55262646484375,0.04763093522489071,-0.02167560603953898,-0.02442249359488487
1713449208992699400,8.562699462890626,0.1094008704394102,-0.031386012464575466,-0.033181115720421074
1713449209002772200,8.572772216796874,0.17607903596162794,-0.028949250304326414,-0.021917525036633013
1713449209012845600,8.582845458984375,0.2140793885320425,-0.05428294045999646,-0.022227321638166903
1713449209022919400,8.59291943359375,0.2636965291380882,-0.0575499794319272,-0.004025163862854242
1713449209032992300,8.6029921875,0.333849092772603,-0.05483991675563156,0.026143618299067018
1713449209043065600,8.613065673828125,0.3447895889818668,-0.029402181703597305,0.0026565058581531045
1713449209053138400,8.623138427734375,0.33087738348543644,-0.03495513965561986,-0.05812076505720615
1713449209063211500,8.63321142578125,0.27082886523604394,-0.009868957987613976,-0.03997705947086215
1713449209073285400,8.643285400390624,0.22895780871212482,-0.0020603300632908938,-0.055622080109268425
1713449209083358500,8.6533583984375,0.20995617112219334,-0.012488967760279773,-0.053963645377755165
1713449209093431600,8.663431640625,0.2129027459681034,-0.028594591647759078,-0.039108606073260305
1713449209103504400,8.67350439453125,0.2334545356094837,-0.06292049348913133,-0.014470423901081084
1713449209113578200,8.683578125,0.21614684245586394,-0.06149963037315756,0.02020736011788249
1713449209123651600,8.693651611328125,0.02675005975961685,-0.01506561331525445,-0.0034333354495465753
1713449209133724400,8.703724365234375,-0.15618892509937285,-0.008988996815308927,-0.026744360671192405
1713449209143797500,8.713797607421874,-0.2763689637064934,0.01076861024107784,-0.06669979283213615
1713449209153871600,8.72387158203125,-0.3151303637772798,0.04487747179828584,-0.06281184548288583
1713449209163944400,8.7339443359375,-0.2939163108348846,0.031737200522422786,-0.047044952030479904
1713449209174017500,8.744017578125,-0.23302140488922596,0.019452450097352265,-0.011925415593385696
1713449209184090400,8.75409033203125,-0.09480126720070839,-0.016480886940658093,0.005267419008910656
1713449209194163200,8.7641630859375,0.09044891721010208,-0.028920243405550716,0.003685410514473915
1713449209204237600,8.774237548828125,0.06491933915615082,-0.040662995908409355,0.017258301053941247
1713449209214310400,8.784310302734376,-0.08502455407381057,-0.05982749590985477,0.0038736265629529952
1713449209224383200,8.79438330078125,-0.10101005871295929,0.0006273746507242322,0.007352262458950281
1713449209234456600,8.80445654296875,-0.09143792824745178,0.06797171246409416,-0.03648191083148122
1713449209244530400,8.814530517578126,-0.16515198375582693,0.0172174575868994,-0.11246814905554056
1713449209254603300,8.824603271484374,-0.15732582017481325,-0.02213873003926128,-0.06797682703062892
1713449209264676400,8.83467626953125,-0.11462883422076701,0.02134286695383489,0.00042027123868465424
1713449209274749400,8.84474951171875,-0.05768062007427215,0.06793861391209066,0.015666355687379837
1713449209284822500,8.854822509765626,-0.041999651339650154,0.06903305808529257,0.027552900575101374
1713449209294896400,8.864896484375,-0.010741174244880676,0.052965464653261005,0.0680023998633027
1713449209304969500,8.874969482421875,0.010887889239192008,-0.019409232010133563,0.11404913463667034
1713449209315042600,8.88504248046875,0.039111528682708736,-0.04565733359698206,0.09168971105143427
1713449209325115400,8.895115478515624,0.1041553710013628,-0.05492839875668287,0.0440630136102438
1713449209335189200,8.905189208984375,0.1868868457019329,-0.06556808538846672,0.009734627550840378
1713449209345262600,8.9152626953125,0.18462299242317676,-0.06212795487195253,0.053598757588118315
1713449209355335400,8.92533544921875,0.16554770507514477,-0.029146197648532688,0.025751550241559742
1713449209365408500,8.935408447265624,0.1261141048312187,-0.00853865923192352,0.00040244332104921336
1713449209375482400,8.945482421875,0.061707975894212716,-0.018487696718424557,-0.015740882228314875
1713449209385555500,8.955555419921875,0.004749824875593185,-0.008671089972555637,-0.0513020249530673
1713449209395628500,8.965628662109374,-0.025871523359417913,-0.03143949621748179,-0.035477117703109975
1713449209405701400,8.975701416015625,-0.005574000740051269,0.011121259603649377,-0.02700111191123724
1713449209415774500,8.9857744140625,-0.007860650372505187,0.029196137737482784,-0.044587914267182345
1713449209425848600,8.9958486328125,-0.014852116695046423,0.024571765872463583,-0.05513356593996286
1713449209435921400,9.00592138671875,0.014925766453146933,-0.016584347315132617,-0.04645268522575497
1713449209445994500,9.015994384765625,0.07205693595111369,-0.03742854403182864,-0.05260331680998206
1713449209456067300,9.0260673828125,0.047264440000057216,-0.030297742303833364,-0.055753597534447905
1713449209466141400,9.036141357421876,0.012001987960934638,-0.011553878867253661,-0.06421674384474754
1713449209476214500,9.046214599609375,-0.037945992034673685,-0.014701529243215918,-0.04913724813461304
1713449209486287400,9.056287353515625,-0.04208557605743408,-0.013885061761178076,-0.04120484770014882
1713449209496360400,9.0663603515625,-0.06665946082174777,0.0030013737730681896,-0.04500497063547373
1713449209506434600,9.0764345703125,-0.08559972361326217,-0.0032971053166314956,-0.024442513469606637
1713449209516507400,9.08650732421875,-0.06599836656451225,0.009315123497135936,-0.05236205540001392
1713449209526580200,9.096580322265625,-0.04984101248979568,-0.009387348483130335,-0.029803455980867144
1713449209536653600,9.106653564453126,0.030036826345324515,-0.055393166724219914,-0.02190817268639803
1713449209546727400,9.1167275390625,0.03745090199410915,-0.034846637779846784,-0.008443564826995134
1713449209556800300,9.12680029296875,0.019400866040587425,-0.019390125450864434,0.0031532033339142797
1713449209566873600,9.13687353515625,0.007956511962413787,-0.013271788701042533,0.012309154213964939
1713449209576946400,9.146946533203124,0.014278700721263885,-0.013326587628200649,0.01155745906382799
1713449209587019500,9.15701953125,0.009755085816979408,-0.005145838455855846,0.004051028956472873
1713449209597093400,9.16709326171875,0.00040741175711154934,-0.025620398142561316,-0.0015834697991609571
1713449209607166500,9.17716650390625,-0.03405775242447853,0.007947196144796907,-0.001404752231389284
1713449209617239600,9.187239501953124,-0.04648936397433281,0.001900901717878878,0.01769976121112704
1713449209627312400,9.1973125,-0.025738252368569373,-0.025200163436494765,0.020526801330596207
1713449209637386200,9.20738623046875,-0.00858428847193718,-0.042153892053291196,0.01120396945104003
1713449209647459800,9.2174599609375,0.08838497041761875,-0.03337393487878144,0.005551496647298336
1713449209657532700,9.22753271484375,0.1357172149568796,-0.032340792438760396,0.008977963964641093
1713449209667605800,9.237605712890625,0.1252659635692835,-0.02151906377095729,0.035503421188145874
1713449209677679900,9.247679931640626,0.13653905273377895,-0.000048807577788829804,-0.02801233478039503
1713449209687752700,9.257752685546874,0.11194178709387778,-0.0034771015260368584,-0.025981997996568678
1713449209697825800,9.26782568359375,0.09832710323929786,-0.010379866651818156,-0.013833879563212394
1713449209707899000,9.27789892578125,0.06978022319078445,-0.0021805589094758032,-0.025875322751700878
1713449209717971700,9.2879716796875,0.02027297269999981,-0.006055756375007331,-0.03624868659749627
1713449209728045800,9.2980458984375,0.014898293924331665,-0.020888620380312202,-0.0449473952293396
1713449209738118700,9.30811865234375,0.005184709161520004,-0.014149302187934518,-0.03923340149670839
1713449209748191700,9.318191650390625,-0.003740355572104454,-0.020847630782797933,-0.022425474558770656
1713449209758264800,9.328264892578124,-0.030237317353487014,-0.00031673779897391794,-0.030244623877108096
1713449209768338700,9.338338623046875,-0.043698271951079365,-0.008439765434712171,-0.04277911127954721
1713449209778411800,9.348411865234375,-0.03826514098644256,-0.009932524743117392,-0.03718815940469503
1713449209788484900,9.35848486328125,-0.03823591489195823,0.004176043575629592,-0.03418342463076114
1713449209798557700,9.3685576171875,-0.06227788473665714,-0.008702252295799552,-0.03417538745477795
1713449209808631600,9.378631591796875,-0.06297288126349448,-0.010938596513122319,-0.024585282941162585
1713449209818705000,9.388704833984375,-0.050751113072037696,-0.01686521008312702,-0.03294248465895652
1713449209828777700,9.39877783203125,-0.036972763088345524,-0.021667276602610943,-0.01957709939032793
1713449209838850800,9.408850830078125,0.01786649608016014,-0.020537322724610566,-0.005862316162139177
1713449209848923600,9.418923583984375,0.04569032255113124,-0.011701616774871944,-0.00997457378655672
1713449209858997800,9.428997802734376,0.07266074706315993,-0.018651947369426488,-0.01089957967698574
1713449209869070800,9.43907080078125,0.07048281850218772,-0.035970527243241665,-0.003451601758599281
1713449209879143700,9.449143798828125,0.11514730513691901,-0.012546141307614743,0.00776055099889636
1713449209889216800,9.459216796875,0.13209084115326403,-0.015937281583249568,-0.013507131826877593
1713449209899291000,9.469290771484374,0.12513561518788338,-0.01363565357737243,-0.0035562311768531796
1713449209909363700,9.47936376953125,0.13156067979931832,-0.01908105950169265,0.0028195874653756618
1713449209919436800,9.489436767578125,0.10114157613813876,-0.029035759544000027,0.019995909324288366
1713449209929510000,9.499510009765626,0.08261573936641216,-0.00847607885710895,0.006129588796198368
1713449209939583700,9.509583740234374,0.034054829815030094,-0.01111000755727291,-0.010131956305354833
1713449209949656800,9.51965673828125,0.017097265273332597,-0.006602795798517763,-0.019163988544791937
1713449209959729700,9.529729736328125,-0.009540566283464431,0.005057319922186434,-0.01961903883591294
1713449209969802800,9.539802734375,-0.014256488889455795,0.007787512071058154,-0.03225610982999205
1713449209979875800,9.549875732421874,-0.04046761946678162,0.0030757541835308073,-0.035030981370806694
1713449209989949700,9.55994970703125,-0.038951369684934616,0.006596767916530371,-0.03409311599880457
1713449210000022500,9.5700224609375,-0.04771569089889526,0.013007694404758512,-0.016575141095370054
1713449210010095900,9.580095947265624,-0.06406769076287747,0.0068614832673221824,-0.030390169827640055
1713449210020168700,9.590168701171875,-0.05219897379279136,0.003794058520719409,-0.03898994812965393
1713449210030242600,9.60024267578125,-0.01662087993323803,-0.0035264570930972692,-0.04384250272735953
1713449210040316000,9.61031591796875,-0.029911738660931584,0.014589556768722832,-0.015461334634572266
1713449210050388700,9.620388671875,0.005317980152368545,-0.0164343443851918,-0.01266162091344595
1713449210060461800,9.6304619140625,0.042938393494486804,-0.02415054478570819,-0.0313248203292489
1713449210070535700,9.64053564453125,0.05365443329811096,-0.006863419496081769,-0.035606589301675554
1713449210080608800,9.65060888671875,0.05627426040768623,-0.03261654064022004,-0.003362462170422077
1713449210090681900,9.660681884765625,0.07354045250713825,-0.030965704693272707,-0.017072130832076073
1713449210100754700,9.670754638671875,0.04462532366812229,-0.0272688594693318,-0.005608779792487621
1713449210110827800,9.680827880859376,0.011551906105875968,-0.0038525107096880674,-0.009964636914432048
1713449210120902000,9.69090185546875,0.013744447714090346,-0.006573898497596382,-0.00985036288499832
1713449210130974700,9.700974609375,-0.013363339442014694,-0.009874584010802209,-0.010789543431252241
1713449210141047800,9.7110478515625,-0.03347381505668163,-0.013633315489813684,-0.014831804559379816
1713449210151120600,9.72112060546875,-0.01720247921347618,-0.014942498392239212,-0.019889964731782672
1713449210161194800,9.73119482421875,-0.01727788253724575,-0.001804930530115962,-0.02225625547170639
1713449210171267800,9.741267822265625,-0.015344284126162528,0.016168094664439556,-0.014352496609836816
1713449210181340700,9.751340576171875,0.02232932070791721,-0.0009465601351112126,-0.03300678206682205
1713449210191413800,9.761413818359374,0.016511574339866636,-0.014649543327651917,-0.026649229733645915
1713449210201488000,9.77148779296875,0.03431260396838188,0.0018725158736109732,-0.03025222266167402
1713449210211560700,9.781560791015625,0.05593406866788864,-0.004153722145967185,-0.009034224196523428
1713449210221633800,9.7916337890625,0.03173369339108467,-0.01350954297967255,-0.02169511445760727
1713449210231707000,9.801706787109374,0.024120295777916908,-0.0319681597340852,-0.03139423230364918
1713449210241779700,9.81177978515625,0.026117607074975967,0.00113806411921978,-0.008284136481583118
1713449210251853800,9.821853759765625,0.05216857865452766,-0.021447861698269843,-0.01815393471941352
1713449210261926700,9.8319267578125,0.05863572884202003,-0.02059190245606005,-0.007253039868175983
1713449210271999700,9.841999755859375,0.0696212332367897,-0.021977657726034522,-0.012909750455617904
1713449210282072800,9.85207275390625,0.07506371655166148,-0.018940664650313556,-0.01085442536100745
1713449210292146700,9.862146728515626,0.03540273729264736,-0.014246515484713018,-0.021993366751819846
1713449210302219800,9.8722197265625,0.0054191024392843245,-0.024186785142868757,-0.009443827910721302
1713449210312292900,9.88229296875,-0.013689502656459808,-0.022358619867637753,-0.04223521366119384
1713449210322365700,9.89236572265625,-0.04076338754296303,0.00458696246407926,-0.023728373850882053
1713449210332439600,9.902439453125,-0.03936287309527397,0.007448489375039935,-0.036437341037392615
1713449210342513000,9.912512939453125,0.002848375168442726,-0.020609291982278226,-0.022458792306482792
1713449210352585700,9.922585693359375,-0.0016910218268632888,-0.015843027428537607,-0.019023703291267156
1713449210362658800,9.932658935546876,-0.013690087178349495,0.018970475266687572,-0.020441461134701966
1713449210372731600,9.942731689453124,-0.02406009002327919,0.011594539671204983,-0.029919629706442356
1713449210382805800,9.9528056640625,-0.0204214412599802,-0.0016163126228377221,-0.02139803120717406
1713449210392878800,9.96287890625,0.008909867164492607,-0.024809812412038446,-0.010966215172410011
1713449210402951700,9.97295166015625,0.023912205985188482,-0.020847996108978986,-0.02709974998012185
1713449210413024800,9.983024658203124,0.019204466685652732,-0.0037012291381135582,-0.021402999643236397
1713449210423099000,9.993098876953125,0.019179916766285894,-0.0500976541319862,-0.008413461949676274
1713449210433171700,10.003171630859375,0.02742810515165329,-0.04950527772940695,0.007409107212722301
1713449210443244800,10.013244873046874,0.03166588885188103,-0.03889492678996175,0.0031117022797465324
1713449210453318000,10.02331787109375,0.044694297251105304,-0.06279445595666766,0.0034467794530093666
1713449210463391700,10.033391845703125,0.04992693720757961,-0.044456396842002865,-0.009552256721258163
1713449210473464800,10.04346484375,0.034790742874145505,-0.01787182984240353,-0.01807487813383341
1713449210483537700,10.05353759765625,0.04527063583433628,-0.0028734730770811436,-0.00891717368811369
1713449210493610800,10.06361083984375,0.03890811506509781,0.015041136461123823,-0.007631225530803203
1713449210503684900,10.073684814453125,0.03704524380266666,0.015997523870505393,-0.039558834058791396
1713449210513757700,10.0837578125,0.026495792737603188,0.0026128493795171378,-0.04279430884867906
1713449210523830500,10.09383056640625,0.02154430781006813,-0.015522965161316096,-0.0361361661337316
1713449210533904000,10.10390380859375,0.00917465558052063,-0.028471842050924897,-0.005661386762559413
1713449210543976700,10.113976806640625,0.013328268128633499,-0.01677745873443782,-0.008643909704685211
1713449210554050600,10.124050537109374,0.022428689429163932,-0.016472411373257636,-0.011789514254033564
1713449210564124000,10.1341240234375,0.02439560558795929,0.013071991812624037,-0.011714257060736416
1713449210574196700,10.14419677734375,-0.011487608698010444,0.01273190967068076,-0.015110767631232737
1713449210584269800,10.154269775390626,-0.03253215029239654,-0.000267382231913507,0.004463555280119181
1713449210594343700,10.16434375,-0.05327858572304248,-0.0018180092073976993,-0.01696983950138092
1713449210604416800,10.174416748046875,-0.04055705131590366,-0.01140818678624928,-0.005827537109702825
1713449210614489900,10.18448974609375,-0.006082534784078598,-0.019046791905909775,-0.004064326829463243
1713449210624562700,10.194562744140624,0.008446341305971146,-0.026993805387616157,-0.015247838014364242
1713449210634636800,10.20463671875,0.03393149569630623,-0.01879237875342369,-0.01770078412443399
1713449210644709400,10.21470947265625,0.1571276672542095,-0.050537543386593456,-0.0024440321512520314
1713449210654782200,10.2247822265625,0.16494681657254695,-0.01794292231723666,-0.00513736288845539
1713449210664855600,10.23485546875,0.13217384326159953,0.006188187115639448,-0.024157559048384427
1713449210674928400,10.244928466796875,0.011344985356926917,0.004292546094767749,-0.03290858238935471
1713449210685002200,10.255002197265625,-0.11818448087573051,0.02541683839447796,-0.017527181123197077
1713449210695075300,10.265075439453126,-0.1427320621550083,0.03308043182492256,0.016303046155720948
1713449210705148400,10.2751484375,-0.14669921222031115,0.004975304194539785,0.0009349427625536918
1713449210715221500,10.285221435546875,-0.14820435608625412,0.015116832045838236,-0.020183833111822605
1713449210725295400,10.29529541015625,-0.0833849701732397,-0.009085406394489109,-0.053625353334099055
1713449210735368400,10.305368408203124,0.02633972539305687,-0.034303178552910686,-0.06326207346841693
1713449210745441500,10.315441650390625,0.02916121255457401,-0.006235387258231639,-0.04156374414041638
1713449210755514400,10.325514404296875,-0.00931669439971447,-0.0008467530224472284,-0.033398557863384484
1713449210765588200,10.335588134765626,-0.007236380994319915,-0.024228140066564083,-0.006820785930752754
1713449210775661600,10.34566162109375,-0.015037410134077072,-0.03208312788326293,0.008550093941390514
1713449210785734400,10.355734375,0.01172434006333351,-0.014025273949466645,0.02542480250522494
1713449210795807500,10.365807373046875,0.013192659050226211,-0.025704423164203762,0.03501519927978516
1713449210805880300,10.37588037109375,0.038677228918671605,-0.0475762093629688,0.018529490033537148
1713449210815954400,10.385954345703125,0.06447393347620964,-0.04010317006856203,0.017853928859531878
1713449210826027500,10.396027587890625,0.07294307113587856,-0.03340264951661229,-0.012847498874366283
1713449210836100400,10.406100341796876,0.1162462062895298,-0.01410794726423919,-0.02462561495155096
1713449210846173200,10.416173095703124,0.11726970411837101,-0.012477204257249831,0.006663841803371906
1713449210856247600,10.42624755859375,0.08956161298155785,-0.02134016354009509,0.005328209285438061
1713449210866320400,10.4363203125,0.04301204325258732,-0.03344838835448027,-0.005144961673021317
1713449210876393200,10.446393310546876,0.024223171630501746,-0.004942278707772493,-0.03542114973217249
1713449210886466600,10.456466552734375,0.0011918401330709458,0.014030936505272984,-0.05724807387590408
1713449210896540400,10.46654052734375,-0.007628595182299613,-0.023490144648216662,-0.044318741936981675
1713449210906613200,10.47661328125,0.035282325783371926,-0.014729878554865718,-0.02770458400547504
1713449210916686300,10.486686279296874,0.044893034693598746,-0.02092902545593679,-0.014351473696529865
1713449210926759400,10.496759521484375,0.008235913425683975,0.008765197996795177,-0.02611351542174816
1713449210936833300,10.506833251953125,-0.011983283260464668,-0.008812325074151158,-0.019326631760597228
1713449210946906400,10.51690625,-0.011565934631228446,0.015002119624987244,-0.0199137839987874
1713449210956979200,10.526979248046874,-0.05256137736439705,0.02406191665418446,-0.007678717934340238
1713449210967052500,10.537052490234375,-0.08428630292713642,0.017782909449934957,-0.01027998647391796
1713449210977125400,10.54712548828125,-0.03923895445466041,-0.011886143028922378,-0.03364961001500487
1713449210987199200,10.55719921875,0.048236499902606006,-0.02536660604458302,-0.01706380139514804
1713449210997272600,10.5672724609375,0.03045359045267105,-0.010000585010647774,-0.04514554814994335
1713449211007345400,10.577345458984375,-0.016041618740558622,-0.01960281835347414,-0.002806581853330135
1713449211017418500,10.58741845703125,-0.022508184406161307,-0.02040631675608456,-0.0020271219134330746
1713449211027492400,10.597492431640624,0.0022287819653749466,-0.0405998675443232,0.00537701686322689
1713449211037565400,10.6075654296875,0.07232873862981797,-0.03547105328850448,-0.000032733225822448726
1713449211047638500,10.617638427734375,0.06353986749649047,-0.0266302327722311,-0.00802592393681407
1713449211057711400,10.62771142578125,0.1055751746714115,-0.022213841102086008,-0.020579116039723157
1713449211067785500,10.637785400390625,0.16934534379243849,-0.03806684193536639,-0.009188537975400686
1713449211077858600,10.647858642578125,0.18111644560694692,-0.058787156544066965,-0.0027704876266419886
1713449211087931400,10.657931396484376,0.13762509440481663,-0.03140679952427745,-0.02297711709216237
1713449211098004200,10.668004150390624,0.15391455042660235,-0.04055588227212429,-0.02252805815041065
1713449211108078600,10.67807861328125,0.18277181159853934,-0.030724406750686464,-0.031262714878469704
1713449211118151400,10.6881513671875,0.12567571341395378,-0.02491502635218203,-0.0037052842587232586
1713449211128224300,10.698224365234376,0.09550035538077353,-0.01618701856061816,0.007706190463155508
1713449211138297300,10.70829736328125,0.07185410685539245,-0.021404534013196825,-0.02646422855556011
1713449211148370400,10.718370361328125,0.0400672219723463,-0.007525646264478564,-0.06092939273715019
1713449211158444300,10.7284443359375,0.09846855753660201,-0.016651859593391417,-0.08599895206391811
1713449211168517400,10.738517333984374,0.07157587443590163,-0.004901069914549589,-0.05701382672861218
1713449211178590200,10.748590087890625,0.020797288835048673,0.022301482852920888,-0.040879853529483076
1713449211188663600,10.75866357421875,-0.035542438024282454,0.047836467734351754,-0.026379472881555555
1713449211198737400,10.7687373046875,-0.0652776510745287,0.041170470506511625,-0.01848068245574832
1713449211208810200,10.778810302734374,-0.1250946986556053,0.057821489849686616,-0.01192585398480296
1713449211218883300,10.78888330078125,-0.2097656169861555,0.04794135288093239,-0.036621173171699044
1713449211228956400,10.798956298828125,-0.23322715659439563,0.019682094134762882,-0.027899229794740674
1713449211239030300,10.8090302734375,-0.21719956637918947,-0.008328815873526036,-0.004188245470076799
1713449211249103400,10.819103271484375,-0.1897714612275362,-0.02510419224873185,0.007926116824150085
1713449211259176400,10.829176513671875,-0.10155600215792655,-0.049841049022413784,-0.02622983527779579
1713449211269249500,10.83924951171875,-0.03505027059316635,-0.07257197280116379,-0.04954758250117302
1713449211279322400,10.849322265625,-0.017913842353224754,-0.05221110262200236,0.019175825113058088
1713449211289396200,10.859396240234375,-0.010691489884257315,-0.04605652551501989,0.012563713496923446
1713449211299469600,10.869469482421875,0.024218495455384254,-0.03543638383392245,0.021904665555059908
1713449211309542400,10.87954248046875,0.06662555855214596,-0.043199820909649134,0.02963043750151992
1713449211319615500,10.889615478515625,0.13178455168306827,-0.04686725737601519,-0.00547200167030096
1713449211329689600,10.899689697265625,0.23609715907275675,-0.07680931810997427,-0.006559212385118007
1713449211339762400,10.909762451171876,0.2761538596510887,-0.08623783885370939,0.0035663141794502733
1713449211349835500,10.91983544921875,0.2563642865538597,-0.03962283920571208,0.007712474073469639
1713449211359908400,10.929908447265625,0.230313314974308,-0.024575565264746545,-0.03781725108847022
1713449211369982500,10.939982421875,0.26062720469534395,-0.013801329000480473,-0.0846283943630755
1713449211380055600,10.9500556640625,0.19003449607789516,-0.01298566523604095,-0.11726137468144297
1713449211390128400,10.96012841796875,0.0846177268385887,-0.016440445332415402,-0.12305135625973343
1713449211400201200,10.970201171875,0.06005319442451,0.00009871113412082195,-0.14296031795293093
1713449211410275600,10.980275634765626,0.04106909249126911,-0.006335048240423202,-0.12429010427445172
1713449211420348400,10.990348388671874,0.003709375911951065,0.0005373948123306036,-0.09313070363998413
1713449211430421200,11.000421142578125,-0.005224456650018691,-0.0075550550220534205,-0.06369228157922625
1713449211440494300,11.010494384765625,-0.02109773308634758,0.00171465843077749,-0.04886486093401909
1713449211450567400,11.0205673828125,-0.11627952403724193,0.01604921752512455,-0.036785423822700974
1713449211460641300,11.030641357421874,-0.19126725274324416,-0.006423530241474509,-0.017408230918645858
1713449211470714400,11.04071435546875,-0.2461556117504835,-0.013669482781738043,-0.004253273530304432
1713449211480787200,11.050787109375,-0.2326484799236059,-0.022283764533139763,-0.04451543355286121
1713449211490860500,11.060860595703126,-0.143241765242815,-0.01721416965126991,-0.0659723553404212
1713449211500934400,11.070934326171875,-0.08462006492614746,-0.03762961956188082,-0.002989975596219301
1713449211511007200,11.08100732421875,-0.0362812736928463,-0.03207381206564605,0.03753887253850698
1713449211521080600,11.09108056640625,0.028573768055438993,-0.02619096457213163,0.03567629353702068
1713449211531153400,11.1011533203125,0.012233458629250526,-0.04674750345386564,0.050743514287471765
1713449211541227300,11.111227294921875,0.0235889653801918,-0.053619435049965976,0.05727087022960186
1713449211551300400,11.12130029296875,0.09001987814307212,-0.04335818980913609,-0.000008329436928033827
1713449211561373400,11.13137353515625,0.11928338202834128,-0.02447831543534994,-0.02301364971026778
1713449211571446500,11.141446533203125,0.07219254502952098,-0.0392638697002083,-0.011735592109709977
1713449211581520400,11.151520263671875,0.046026422637701035,-0.03740070617683232,-0.003901391352713108
1713449211591593500,11.161593505859376,0.04131225359737873,-0.01191957037448883,0.004772913490235805
1713449211601666600,11.17166650390625,0.015322072294354437,-0.010125161238387227,-0.022010756278038023
1713449211611739400,11.181739501953125,-0.002466682374477386,-0.0057866936426609755,-0.007840338236838579
1713449211621812200,11.191812255859375,-0.009697802671790122,-0.010990034439414738,-0.02362330604121089
1713449211631886600,11.201886474609376,0.03091360917985439,0.011888700312189757,-0.07241773208752274
1713449211641959400,11.21195947265625,0.049636429828405375,0.016308379917964338,-0.07416516027674079
1713449211652033000,11.222032958984375,0.05843056165874004,-0.0067363590503111475,-0.030668256116658448
1713449211662106000,11.232106201171876,0.0765226831883192,0.0014350377717986702,-0.022198241674154996
1713449211672180000,11.242179931640624,0.11065876154601573,-0.0044533261470496655,-0.026058278103172777
1713449211682253000,11.252253173828125,0.1002946039199829,0.01982559425868094,-0.08605155903398991
1713449211692326100,11.262326171875,0.08031506120860576,0.008163432711362838,-0.04913783265650272
1713449211702399000,11.27239892578125,-0.01830488749742508,0.001741108046285808,-0.05424582332000136
1713449211712472800,11.282472900390625,-0.06175882929861545,-0.006334463718533516,-0.04800707506090402
1713449211722546200,11.292546142578125,-0.09673252752423286,-0.016512451122701166,-0.03547200313657522
1713449211732619000,11.302618896484375,-0.061657707011699675,-0.04254990563355386,-0.018289397667348384
1713449211742692000,11.312692138671874,0.005173018723726272,-0.05116590441800654,-0.007440379133820533
1713449211752766200,11.32276611328125,0.10466799669861793,-0.052581360706500706,0.01241305297985673
1713449211762839000,11.332839111328125,0.11641980929076672,-0.07485851283576339,0.03430310548767447
1713449211772912000,11.342912109375,0.06450783574581145,-0.05683562061749398,-0.007833470104634761
1713449211782985000,11.35298486328125,0.07439619255363941,-0.039665691966749725,-0.02334215101227164
1713449211793057800,11.363057861328125,0.08848024748563765,-0.05092712722606957,0.0017035890474915503
1713449211803132200,11.373132080078125,0.07916472212970256,-0.039437691897153855,0.001357698219269514
1713449211813205000,11.383205078125,0.06593465367853642,-0.044188174359872934,0.007591770303249359
1713449211823277800,11.39327783203125,0.013419453543424605,-0.0418055535396561,0.021566081250458953
1713449211833351000,11.403350830078125,-0.04541735082864761,-0.0394528894662857,0.005514087246358395
1713449211843425000,11.413425048828126,-0.09220774357616901,-0.014975889205187559,-0.01787730973511934
1713449211853497900,11.423497802734374,-0.10886720195412636,-0.002959069001302123,-0.037565760545432564
1713449211863571000,11.433571044921875,-0.08996610212922096,-0.007231631753966212,-0.05764671780467033
1713449211873644000,11.44364404296875,-0.10836802026033401,0.011187200979329645,-0.08941387507393955
1713449211883718000,11.4537177734375,-0.09279577259719371,0.011594357008114457,-0.11039514217376709
1713449211893791000,11.463791015625,-0.07027414418756961,0.014566577751934527,-0.05284077882766723
1713449211903863800,11.47386376953125,-0.008273907348513602,-0.00044420010354369874,0.013632219511270522
1713449211913937200,11.483937255859376,0.047780572828650475,0.0037260347858071325,-0.0007326981887221336
1713449211924010000,11.494010009765624,0.06719196026325225,0.015535568914562464,0.0023261048600077628
1713449211934083800,11.504083740234375,0.048942017823457716,0.027207667334005235,0.009627952305972576
1713449211944157200,11.5141572265625,0.023292612782120702,0.013005758175998925,-0.0019186931028962134
1713449211954230000,11.52422998046875,0.016501052945852277,0.010330255356431006,-0.019428338569402695
1713449211964303000,11.53430322265625,0.015497428861260413,-0.0013502090325579047,-0.023009850317984817
1713449211974377000,11.544376953125,0.01215571721792221,-0.03911014044322073,-0.01377498898282647
1713449211984450000,11.554449951171875,0.06790273888111115,-0.05520948072038591,0.0026581132933497426
1713449211994523100,11.564523193359374,0.0523456887871027,-0.04413147573657333,0.02171148107051849
1713449212004596000,11.574595947265625,0.042028292912244795,-0.037954832928255196,-0.012473112604022025
1713449212014670000,11.584670166015625,0.02247545118033886,-0.03316449337918311,-0.028450287806242702
1713449212024743200,11.5947431640625,0.03887655088305473,-0.026443989485129712,-0.03904810805767774
1713449212034816000,11.60481591796875,0.027425767064094542,-0.03678257427848875,-0.04844225160777568
1713449212044889000,11.61488916015625,0.0045066637694835664,-0.03894420929178595,-0.01826324031278491
1713449212054963200,11.624963134765625,0.007121814703941345,-0.024160043266415594,-0.022530980759859084
1713449212065036000,11.6350361328125,0.042999183771014214,-0.021490824057161805,-0.03095408732071519
1713449212075109000,11.645109130859375,0.017909166178107262,-0.023854630579054355,-0.030338001248985526
1713449212085182000,11.655181884765625,0.028705285480618476,-0.036126813783496615,-0.03865764743536711
1713449212095256000,11.665256103515626,0.0556003066688776,-0.04418572667445987,-0.04275207714214921
1713449212105329200,11.6753291015625,0.07521803033053874,-0.03420633058231324,-0.058390229648351666
1713449212115402000,11.685402099609375,0.04482815276384353,-0.013646540297567844,-0.03760594642534852
1713449212125474800,11.695474853515625,0.013895254361629486,-0.02972140372060239,-0.043802901369333264
1713449212135548200,11.705548095703126,0.024980711999535558,-0.025297778592072426,-0.03849588100239634
1713449212145622000,11.7156220703125,0.024658640438318252,-0.008459346918016671,-0.023275953908264636
1713449212155694800,11.72569482421875,0.0020820669710636137,-0.0037959582168608902,-0.015868015739321707
1713449212165768000,11.735767822265625,-0.0037304186999797817,-0.008475421269983052,-0.005781213749945164
1713449212175841000,11.745841064453124,-0.035134441745281214,-0.019581739032827318,-0.03182181006595492
1713449212185915000,11.755914794921875,-0.03482873679697513,-0.018995427044853568,-0.025895488756895065
1713449212195988000,11.765988037109375,-0.016820201897621154,-0.0081537150349468,-0.021931699692457913
1713449212206061000,11.77606103515625,0.011355506750941276,0.009323014542646706,-0.04196326485201716
1713449212216134100,11.786134033203124,0.0013268646895885467,-0.00866780203692615,-0.027412615321576593
1713449212226208000,11.7962080078125,-0.009099836778640747,-0.03646448477264493,-0.05139364875927567
1713449212236280800,11.80628076171875,0.005846387940645218,-0.03945274333581328,-0.05190773576125502
1713449212246354200,11.816354248046874,0.03004091799855232,-0.050322841189987956,-0.020633768836408852
1713449212256427000,11.826427001953125,0.05511573802232742,-0.042551220807805656,-0.00036415713727474213
1713449212266500900,11.8365009765625,0.09667699794471263,-0.021488632100075483,-0.024438129555433986
1713449212276574200,11.84657421875,0.10435352392196655,-0.02317600066512823,-0.016379180131852626
1713449212286647000,11.85664697265625,0.08077215732634067,-0.006072305651009083,-0.001132218900322914
1713449212296720100,11.86672021484375,0.05537234313189983,-0.021686529292352496,-0.0001641045205295086
1713449212306793000,11.87679296875,0.03277589592039585,0.0054987435467541215,0.0036468320697546
1713449212316867000,11.8868671875,0.027245149800181386,-0.005566913412138819,-0.01767389611750841
1713449212326940200,11.896940185546875,0.02766191390752792,-0.00012348024919629097,-0.03779094760343432
1713449212337013000,11.907012939453125,0.018691840988397598,-0.024191826644167302,-0.05710691183954477
1713449212347086000,11.917086181640625,0.008030161720514297,-0.01343001147005707,-0.05312032642140984
1713449212357160200,11.92716015625,0.0005307458758354186,0.0038804216299206016,-0.032916619565337896
1713449212367233000,11.93723291015625,-0.001675239735841751,0.0053441375069320195,-0.028961598329246042
1713449212377306000,11.94730615234375,0.005192892467975616,-0.030719694042950867,0.006827215671539306
1713449212387379000,11.95737890625,0.009902385333180427,-0.004329115245491266,0.00805704972743988
1713449212397453000,11.967453125,-0.01974573395550251,0.0060856035239994525,-0.027838147257268426
1713449212407526100,11.977526123046875,-0.04873860420584678,-0.003045285980030894,-0.013438596635311842
1713449212417599000,11.987598876953125,-0.10135901828110218,-0.01804945143163204,-0.027535364918410778
1713449212427671800,11.997671875,-0.10705226148664951,-0.0130460901863873,-0.016046002654731273
1713449212437745200,12.0077451171875,-0.08465104458630085,-0.001629793158918619,-0.02436930210292339
1713449212447819000,12.017819091796875,-0.05856207908391952,-0.008049304812401533,-0.023573183289170265
1713449212457891800,12.027891845703126,-0.00985387001633644,-0.03262750042565167,-0.040081835019588466
1713449212467965200,12.037965087890624,0.045266544181108474,-0.054137102248519656,-0.013661445605754852
1713449212478038000,12.0480380859375,0.027646131816506384,-0.030945648285932836,0.01177928512096405
1713449212488111900,12.05811181640625,0.009652794486284255,-0.01959324680753052,-0.015032587828487157
1713449212498185000,12.06818505859375,0.06644143415689469,-0.01949435301031917,-0.022186551236361263
1713449212508258000,12.078258056640625,0.0872802240461111,-0.042537228815071285,-0.03281111336424947
1713449212518331100,12.0883310546875,0.13280337333679199,-0.025149858021363613,-0.005586860221624374
1713449212528405000,12.098405029296876,0.12165244924724102,0.00048303427658975124,-0.013952829767763613
1713449212538477800,12.108477783203124,0.12661796270012854,-0.020642901990935204,-0.016891367437690496
1713449212548551200,12.11855126953125,0.11447042878866195,-0.02847220737710595,0.0003422375664114952
1713449212558624000,12.1286240234375,0.08899813387989998,-0.02886887854449451,-0.0012295417949557304
1713449212568697900,12.13869775390625,0.059686114677786825,-0.029449345313571393,-0.012401216411590575
1713449212578771200,12.148771240234375,0.051396425238251685,-0.0337915757689625,-0.027734686882793902
1713449212588844000,12.158843994140625,0.05338847583830356,-0.013798223727941513,-0.04434036924690008
1713449212598917000,12.168917236328125,0.03172434104084968,-0.02261668628193438,-0.02958206831514835
1713449212608991000,12.178990966796874,0.050911272069811817,-0.03739544547982514,-0.01464227333664894
1713449212619064000,12.18906396484375,0.0432698174059391,-0.05496829237565398,-0.004895955348014831
1713449212629137200,12.19913720703125,0.05116612361371517,-0.036054113873466846,-0.024732728587836025
1713449212639210000,12.2092099609375,0.029220833787322043,-0.0341966129058972,-0.043394466698914766
1713449212649282300,12.2192822265625,0.028852584996819496,-0.01421257668249309,-0.04475289557054639
1713449212659356200,12.229356201171875,-0.012977554994821547,-0.0005047346517443657,-0.07918298843875526
1713449212669429000,12.239428955078125,-0.05926175178587436,-0.003323481866903603,-0.07868760613724589
1713449212679502300,12.24950244140625,-0.08037409791946411,-0.007432634218782186,-0.06895692410916089
