time,seconds_elapsed,z,y,x
1715194642839747000,0.0117470703125,-0.994293212890625,-0.0161590576171875,-0.0838775634765625
1715194642849821400,0.021821533203125,-0.9982147216796875,-0.017181396484375,-0.082366943359375
1715194642859895300,0.031895263671875,-0.9956512451171875,-0.02044677734375,-0.0808868408203125
1715194642869970400,0.041970458984375,-0.9940948486328125,-0.0196075439453125,-0.0814056396484375
1715194642880044300,0.052044189453125,-0.9984130859375,-0.0203857421875,-0.0818634033203125
1715194642890118700,0.06211865234375,-0.9978790283203125,-0.0207061767578125,-0.07965087890625
1715194642900192800,0.07219287109375,-0.99639892578125,-0.0177764892578125,-0.0772552490234375
1715194642910267600,0.082267578125,-0.9975128173828125,-0.018280029296875,-0.081512451171875
1715194642920341800,0.092341796875,-0.9945220947265625,-0.01910400390625,-0.0813140869140625
1715194642930415600,0.10241552734375,-0.9918212890625,-0.0189056396484375,-0.079315185546875
1715194642940490800,0.11249072265625,-0.9952239990234375,-0.0187530517578125,-0.07940673828125
1715194642950564600,0.122564697265625,-0.998291015625,-0.01947021484375,-0.0794677734375
1715194642960638700,0.132638671875,-0.9954681396484375,-0.0205230712890625,-0.07977294921875
1715194642970713600,0.142713623046875,-0.9986114501953125,-0.013397216796875,-0.0775146484375
1715194642980787700,0.15278759765625,-0.9970550537109375,-0.0164337158203125,-0.0782623291015625
1715194642990861600,0.162861572265625,-0.99139404296875,-0.02227783203125,-0.0755767822265625
1715194643000936700,0.172936767578125,-0.9956207275390625,-0.014373779296875,-0.0755462646484375
1715194643011010600,0.183010498046875,-0.99737548828125,-0.01727294921875,-0.07696533203125
1715194643021084700,0.193084716796875,-0.9907989501953125,-0.019195556640625,-0.077301025390625
1715194643031159600,0.20315966796875,-0.996917724609375,-0.0158233642578125,-0.080047607421875
1715194643041233700,0.213233642578125,-1.0043792724609375,-0.0153045654296875,-0.0803985595703125
1715194643051307800,0.223307861328125,-1.0015869140625,-0.017547607421875,-0.0781402587890625
1715194643061382700,0.233382568359375,-0.9983978271484375,-0.016876220703125,-0.0821990966796875
1715194643071456800,0.243456787109375,-1.0013427734375,-0.0176239013671875,-0.0819091796875
1715194643081531000,0.25353076171875,-0.9976043701171875,-0.013336181640625,-0.0796356201171875
1715194643091605800,0.263605712890625,-0.996612548828125,-0.013031005859375,-0.0871429443359375
1715194643101679900,0.273679931640625,-0.9980621337890625,-0.014190673828125,-0.0853424072265625
1715194643111753700,0.283753662109375,-0.9996490478515625,-0.0159454345703125,-0.0767059326171875
1715194643121828900,0.293828857421875,-0.995635986328125,-0.015899658203125,-0.0751495361328125
1715194643131902700,0.30390283203125,-0.9923858642578125,-0.0164947509765625,-0.0807952880859375
1715194643141976600,0.3139765625,-0.9912261962890625,-0.0153656005859375,-0.0823822021484375
1715194643152051700,0.3240517578125,-0.991851806640625,-0.016693115234375,-0.0789031982421875
1715194643162125600,0.33412548828125,-0.99359130859375,-0.0143585205078125,-0.07940673828125
1715194643172199700,0.34419970703125,-0.9987945556640625,-0.015045166015625,-0.077362060546875
1715194643182274600,0.354274658203125,-0.997344970703125,-0.016021728515625,-0.0778656005859375
1715194643192348700,0.3643486328125,-0.9939727783203125,-0.015869140625,-0.0785369873046875
1715194643202422500,0.374422607421875,-0.9975433349609375,-0.0160064697265625,-0.080535888671875
1715194643212496600,0.38449658203125,-0.9981689453125,-0.016143798828125,-0.0772247314453125
1715194643222571500,0.394571533203125,-0.9959869384765625,-0.0137176513671875,-0.0756683349609375
1715194643232645600,0.404645751953125,-0.9947052001953125,-0.013946533203125,-0.0754241943359375
1715194643242719700,0.4147197265625,-0.995758056640625,-0.015625,-0.077911376953125
1715194643252794600,0.424794677734375,-0.9967193603515625,-0.0150299072265625,-0.0789031982421875
1715194643262868700,0.43486865234375,-0.998779296875,-0.0115814208984375,-0.0808258056640625
1715194643272942800,0.44494287109375,-0.9999847412109375,-0.012359619140625,-0.0825347900390625
1715194643283017700,0.455017822265625,-0.9950103759765625,-0.013671875,-0.082366943359375
1715194643293091800,0.465091796875,-0.9980926513671875,-0.01123046875,-0.0812225341796875
1715194643303165700,0.475165771484375,-0.999420166015625,-0.010894775390625,-0.0804595947265625
1715194643313240800,0.48524072265625,-1.0006103515625,-0.01171875,-0.08038330078125
1715194643323314700,0.495314697265625,-0.9990081787109375,-0.014862060546875,-0.07733154296875
1715194643333388800,0.505388916015625,-0.995849609375,-0.013336181640625,-0.0791168212890625
1715194643343463700,0.515463623046875,-0.9947662353515625,-0.014892578125,-0.0787811279296875
1715194643353537800,0.525537841796875,-0.99371337890625,-0.0159454345703125,-0.0792083740234375
1715194643363611600,0.535611572265625,-0.9909515380859375,-0.01422119140625,-0.080108642578125
1715194643373686800,0.545686767578125,-0.988616943359375,-0.0154266357421875,-0.076904296875
1715194643383760600,0.5557607421875,-0.986053466796875,-0.0174407958984375,-0.0767974853515625
1715194643393834500,0.56583447265625,-0.996490478515625,-0.01263427734375,-0.077178955078125
1715194643403909600,0.57590966796875,-1.0034942626953125,-0.0058135986328125,-0.077484130859375
1715194643413983500,0.5859833984375,-0.99542236328125,-0.018218994140625,-0.08050537109375
1715194643424057600,0.5960576171875,-0.9839935302734375,-0.0196075439453125,-0.0797882080078125
1715194643434132700,0.6061328125,-0.992462158203125,-0.01153564453125,-0.0790557861328125
1715194643444206600,0.61620654296875,-1.001617431640625,-0.010711669921875,-0.079376220703125
1715194643454280700,0.62628076171875,-0.998077392578125,-0.0121612548828125,-0.08013916015625
1715194643464355600,0.63635546875,-0.9919281005859375,-0.0133056640625,-0.0782623291015625
1715194643474429700,0.6464296875,-0.9917755126953125,-0.0130462646484375,-0.0833282470703125
1715194643484503800,0.65650390625,-0.995513916015625,-0.01177978515625,-0.0828399658203125
1715194643494578700,0.66657861328125,-0.993927001953125,-0.0136871337890625,-0.0823516845703125
1715194643504652800,0.67665283203125,-0.9893798828125,-0.013031005859375,-0.0744171142578125
1715194643514726700,0.6867265625,-0.99285888671875,-0.01165771484375,-0.0803070068359375
1715194643524800800,0.69680078125,-0.9994659423828125,-0.0134429931640625,-0.083343505859375
1715194643534875600,0.706875732421875,-0.9931640625,-0.0151214599609375,-0.080841064453125
1715194643544949800,0.71694970703125,-0.9967041015625,-0.013580322265625,-0.08074951171875
1715194643555023600,0.727023681640625,-0.9987945556640625,-0.0128173828125,-0.0803070068359375
1715194643565098800,0.7370986328125,-0.9976959228515625,-0.0122833251953125,-0.07598876953125
1715194643575172600,0.747172607421875,-0.998199462890625,-0.0118408203125,-0.071075439453125
1715194643585246700,0.757246826171875,-1.0011749267578125,-0.0139007568359375,-0.0738525390625
1715194643595321600,0.767321533203125,-0.9980926513671875,-0.0119476318359375,-0.078155517578125
1715194643605395700,0.777395751953125,-1.0013275146484375,-0.01055908203125,-0.0803680419921875
1715194643615469600,0.787469482421875,-1.0000762939453125,-0.0100250244140625,-0.0809326171875
1715194643625544700,0.797544677734375,-1.002532958984375,-0.0104522705078125,-0.082672119140625
1715194643635618600,0.80761865234375,-1.0012664794921875,-0.00897216796875,-0.0823822021484375
1715194643645692700,0.817692626953125,-1.0013885498046875,-0.0098114013671875,-0.0811767578125
1715194643655767600,0.827767578125,-0.9994049072265625,-0.009857177734375,-0.079681396484375
1715194643665841700,0.837841552734375,-0.9990692138671875,-0.009063720703125,-0.07733154296875
1715194643675915800,0.847915771484375,-1.0015869140625,-0.009552001953125,-0.07611083984375
1715194643685991000,0.857990966796875,-0.9981231689453125,-0.011260986328125,-0.0765380859375
1715194643696064800,0.868064697265625,-0.9958648681640625,-0.0130157470703125,-0.07745361328125
1715194643706138600,0.878138671875,-0.9953155517578125,-0.0104217529296875,-0.0733642578125
1715194643716213800,0.8882138671875,-0.9960479736328125,-0.0108795166015625,-0.0747222900390625
1715194643726287600,0.89828759765625,-0.9941558837890625,-0.0100250244140625,-0.0747222900390625
1715194643736361700,0.90836181640625,-0.9944610595703125,-0.0118408203125,-0.07122802734375
1715194643746436600,0.9184365234375,-0.9951171875,-0.0129547119140625,-0.0694427490234375
1715194643756510700,0.9285107421875,-0.996307373046875,-0.0130462646484375,-0.0715484619140625
1715194643766584600,0.93858447265625,-0.9942169189453125,-0.01251220703125,-0.0681610107421875
1715194643776659700,0.94865966796875,-0.996551513671875,-0.0114593505859375,-0.0699005126953125
1715194643786733600,0.958733642578125,-0.999664306640625,-0.01129150390625,-0.0736846923828125
1715194643796807700,0.9688076171875,-0.9984130859375,-0.0105743408203125,-0.0743560791015625
1715194643806881800,0.9788818359375,-0.99688720703125,-0.0122222900390625,-0.0742034912109375
1715194643816956700,0.988956787109375,-0.99713134765625,-0.0091705322265625,-0.0736083984375
1715194643827030800,0.99903076171875,-0.9979400634765625,-0.0091705322265625,-0.0767059326171875
1715194643837105000,1.00910498046875,-0.99908447265625,-0.0109710693359375,-0.0755615234375
1715194643847179800,1.0191796875,-0.99566650390625,-0.011383056640625,-0.0716400146484375
1715194643857254000,1.02925390625,-0.99249267578125,-0.010955810546875,-0.0731353759765625
1715194643867327700,1.03932763671875,-0.9931488037109375,-0.0112457275390625,-0.075469970703125
1715194643877403000,1.04940283203125,-0.9906158447265625,-0.0115814208984375,-0.0760040283203125
1715194643887476700,1.059476806640625,-0.9892578125,-0.0114288330078125,-0.077911376953125
1715194643897550300,1.06955029296875,-0.993499755859375,-0.0115509033203125,-0.0761871337890625
1715194643907625200,1.079625244140625,-0.99505615234375,-0.0096435546875,-0.0753936767578125
1715194643917699300,1.08969921875,-0.9937591552734375,-0.0108184814453125,-0.076171875
1715194643927773200,1.099773193359375,-0.996429443359375,-0.0095062255859375,-0.074249267578125
1715194643937848300,1.109848388671875,-0.9962158203125,-0.0094451904296875,-0.0722808837890625
1715194643947922200,1.119922119140625,-0.9966888427734375,-0.0100860595703125,-0.0727081298828125
1715194643957996300,1.129996337890625,-0.9945831298828125,-0.00958251953125,-0.0739898681640625
1715194643968071200,1.1400712890625,-0.996551513671875,-0.01019287109375,-0.073455810546875
1715194643978145300,1.150145263671875,-0.9959716796875,-0.010894775390625,-0.0747528076171875
1715194643988219100,1.16021923828125,-0.9938201904296875,-0.009185791015625,-0.0762786865234375
1715194643998294300,1.170294189453125,-0.9936370849609375,-0.01019287109375,-0.076812744140625
1715194644008368000,1.1803681640625,-0.9939727783203125,-0.0099334716796875,-0.0738525390625
1715194644018442500,1.1904423828125,-0.994140625,-0.009002685546875,-0.075836181640625
1715194644028517000,1.20051708984375,-0.9949188232421875,-0.0097198486328125,-0.0734710693359375
1715194644038591500,1.210591552734375,-0.99578857421875,-0.0093841552734375,-0.072967529296875
1715194644048665300,1.220665283203125,-0.995819091796875,-0.010650634765625,-0.0718536376953125
1715194644058740500,1.230740478515625,-0.9970550537109375,-0.010833740234375,-0.0731201171875
1715194644068814300,1.240814453125,-0.998992919921875,-0.0103759765625,-0.0719146728515625
1715194644078888200,1.25088818359375,-0.9981231689453125,-0.010833740234375,-0.0711517333984375
1715194644088962300,1.26096240234375,-0.995269775390625,-0.011505126953125,-0.0718994140625
1715194644099037200,1.271037109375,-0.9979400634765625,-0.0103607177734375,-0.07244873046875
1715194644109111300,1.281111328125,-0.998321533203125,-0.00958251953125,-0.0728912353515625
1715194644119185200,1.29118505859375,-0.9976348876953125,-0.011474609375,-0.073944091796875
1715194644129260300,1.30126025390625,-0.99755859375,-0.011810302734375,-0.0745086669921875
1715194644139334100,1.311334228515625,-0.9960784912109375,-0.0107269287109375,-0.0733184814453125
1715194644149408300,1.321408203125,-0.998626708984375,-0.010955810546875,-0.07403564453125
1715194644159483100,1.331483154296875,-1.0003204345703125,-0.010894775390625,-0.0740203857421875
1715194644169557200,1.34155712890625,-0.9989166259765625,-0.0098419189453125,-0.0714111328125
1715194644179631400,1.35163134765625,-0.9971771240234375,-0.0093231201171875,-0.072998046875
1715194644189706200,1.361706298828125,-0.9987640380859375,-0.011138916015625,-0.0727081298828125
1715194644199780400,1.3717802734375,-0.99798583984375,-0.010284423828125,-0.07208251953125
1715194644209854500,1.3818544921875,-0.99774169921875,-0.010498046875,-0.074188232421875
1715194644219929300,1.391929443359375,-0.9975738525390625,-0.010650634765625,-0.0751495361328125
1715194644230003500,1.40200341796875,-0.995269775390625,-0.0091705322265625,-0.07342529296875
1715194644240077300,1.412077392578125,-0.9946746826171875,-0.010833740234375,-0.0739593505859375
1715194644250152400,1.42215234375,-0.9948883056640625,-0.0094146728515625,-0.074798583984375
1715194644260226300,1.432226318359375,-0.996063232421875,-0.009674072265625,-0.076141357421875
1715194644270300400,1.442300537109375,-0.9967193603515625,-0.0098114013671875,-0.07415771484375
1715194644280375300,1.452375244140625,-0.9953460693359375,-0.0103759765625,-0.075164794921875
1715194644290449400,1.462449462890625,-0.9961700439453125,-0.0104827880859375,-0.075958251953125
1715194644300523300,1.472523193359375,-0.9960784912109375,-0.011016845703125,-0.07501220703125
1715194644310597000,1.48259716796875,-0.996673583984375,-0.0092620849609375,-0.07366943359375
1715194644320672300,1.49267236328125,-0.9964752197265625,-0.0095672607421875,-0.0752716064453125
1715194644330746000,1.50274609375,-0.9969940185546875,-0.0096893310546875,-0.075531005859375
1715194644340820200,1.5128203125,-0.9954833984375,-0.0106201171875,-0.07476806640625
1715194644350895000,1.52289501953125,-0.995941162109375,-0.0103912353515625,-0.0747833251953125
1715194644360969200,1.53296923828125,-0.9955596923828125,-0.011566162109375,-0.07415771484375
1715194644371043300,1.543043212890625,-0.995880126953125,-0.00921630859375,-0.072357177734375
1715194644381118200,1.5531181640625,-0.998870849609375,-0.009796142578125,-0.0726470947265625
1715194644391192300,1.5631923828125,-0.9973907470703125,-0.0103759765625,-0.073150634765625
1715194644401266400,1.573266357421875,-0.993255615234375,-0.0105438232421875,-0.072967529296875
1715194644411341300,1.58334130859375,-0.997314453125,-0.0095062255859375,-0.0736083984375
1715194644421415400,1.59341552734375,-0.9970855712890625,-0.0112457275390625,-0.0730743408203125
1715194644431489300,1.6034892578125,-0.995208740234375,-0.010833740234375,-0.0742340087890625
1715194644441564400,1.613564453125,-0.9962158203125,-0.0100250244140625,-0.0743255615234375
1715194644451638300,1.62363818359375,-0.9974822998046875,-0.0098724365234375,-0.073455810546875
1715194644461712400,1.63371240234375,-0.995635986328125,-0.0111846923828125,-0.073150634765625
1715194644471787300,1.643787353515625,-0.9966583251953125,-0.0103607177734375,-0.0723876953125
1715194644481861400,1.653861328125,-0.996124267578125,-0.01068115234375,-0.073883056640625
1715194644491935200,1.663935302734375,-0.996551513671875,-0.011260986328125,-0.073974609375
1715194644502009300,1.67400927734375,-0.9970245361328125,-0.0118408203125,-0.0733642578125
1715194644512084200,1.684084228515625,-0.9954376220703125,-0.010711669921875,-0.073944091796875
1715194644522158300,1.694158447265625,-0.996795654296875,-0.010040283203125,-0.0739898681640625
1715194644532232200,1.704232177734375,-0.9964599609375,-0.0100860595703125,-0.0742034912109375
1715194644542307300,1.714307373046875,-0.99700927734375,-0.010528564453125,-0.074493408203125
1715194644552381200,1.724381103515625,-0.9954681396484375,-0.0104217529296875,-0.0743408203125
1715194644562455300,1.734455322265625,-0.9980621337890625,-0.00933837890625,-0.0724639892578125
1715194644572530200,1.7445302734375,-0.99835205078125,-0.0096588134765625,-0.0733642578125
1715194644582604300,1.754604248046875,-0.9974517822265625,-0.00927734375,-0.0733184814453125
1715194644592678400,1.764678466796875,-0.9984588623046875,-0.0093994140625,-0.0749053955078125
1715194644602753300,1.774753173828125,-0.997314453125,-0.010101318359375,-0.0745391845703125
1715194644612827400,1.784827392578125,-0.9979400634765625,-0.008331298828125,-0.072021484375
1715194644622901200,1.7949013671875,-0.9960479736328125,-0.009429931640625,-0.07476806640625
1715194644632976400,1.804976318359375,-0.9964752197265625,-0.0108795166015625,-0.0734100341796875
1715194644643050200,1.81505029296875,-0.9968719482421875,-0.011260986328125,-0.072723388671875
1715194644653124400,1.825124267578125,-0.996124267578125,-0.00994873046875,-0.071563720703125
1715194644663199200,1.83519921875,-0.9960174560546875,-0.0093231201171875,-0.073822021484375
1715194644673273300,1.8452734375,-0.9956512451171875,-0.0092315673828125,-0.07275390625
1715194644683347200,1.85534716796875,-0.9970855712890625,-0.01025390625,-0.0726165771484375
1715194644693421300,1.86542138671875,-0.996185302734375,-0.011199951171875,-0.074249267578125
1715194644703496200,1.87549609375,-0.996307373046875,-0.0107574462890625,-0.073455810546875
1715194644713570300,1.8855703125,-0.9975738525390625,-0.009796142578125,-0.074127197265625
1715194644723644200,1.89564404296875,-0.9967193603515625,-0.009674072265625,-0.0738525390625
1715194644733719300,1.90571923828125,-0.99676513671875,-0.00994873046875,-0.0733795166015625
1715194644743793200,1.915793212890625,-0.99676513671875,-0.0109710693359375,-0.072540283203125
1715194644753867300,1.9258671875,-0.996368408203125,-0.0097808837890625,-0.0719451904296875
1715194644763942100,1.935942138671875,-0.9955291748046875,-0.009307861328125,-0.074127197265625
1715194644774016300,1.946016357421875,-0.996063232421875,-0.0091705322265625,-0.072845458984375
1715194644784090400,1.95609033203125,-0.9969940185546875,-0.010467529296875,-0.0734405517578125
1715194644794165200,1.966165283203125,-0.9958953857421875,-0.0106201171875,-0.0742950439453125
1715194644804239400,1.9762392578125,-0.9961395263671875,-0.0102386474609375,-0.07373046875
1715194644814313200,1.986313232421875,-0.99664306640625,-0.0094451904296875,-0.0734100341796875
1715194644824388400,1.996388427734375,-0.99676513671875,-0.010528564453125,-0.07318115234375
1715194644834462200,2.006462158203125,-0.9987335205078125,-0.0089263916015625,-0.0744476318359375
1715194644844536300,2.016536376953125,-0.996612548828125,-0.0091705322265625,-0.074066162109375
1715194644854611500,2.026611572265625,-0.995819091796875,-0.0106353759765625,-0.07476806640625
1715194644864685300,2.036685302734375,-0.9969635009765625,-0.009368896484375,-0.0734405517578125
1715194644874759200,2.04675927734375,-0.9967041015625,-0.010528564453125,-0.0725555419921875
1715194644884833300,2.056833251953125,-0.9954681396484375,-0.0115509033203125,-0.0731964111328125
1715194644894909000,2.066908935546875,-0.995880126953125,-0.0100860595703125,-0.0738677978515625
1715194644904982800,2.076982666015625,-0.99761962890625,-0.01080322265625,-0.072113037109375
1715194644915057000,2.087056884765625,-0.996368408203125,-0.009185791015625,-0.072967529296875
1715194644925131800,2.0971318359375,-0.99737548828125,-0.0086669921875,-0.0748291015625
1715194644935206000,2.107205810546875,-0.9967498779296875,-0.0091552734375,-0.0750885009765625
1715194644945279700,2.11727978515625,-0.996856689453125,-0.009674072265625,-0.0734710693359375
1715194644955355000,2.12735498046875,-0.9963836669921875,-0.0097503662109375,-0.0743408203125
1715194644965428700,2.1374287109375,-0.9963836669921875,-0.00970458984375,-0.0728302001953125
1715194644975502800,2.1475029296875,-0.9969482421875,-0.0097808837890625,-0.071868896484375
1715194644985577700,2.15757763671875,-0.9964447021484375,-0.01129150390625,-0.0729827880859375
1715194644995651800,2.16765185546875,-0.998443603515625,-0.010345458984375,-0.074432373046875
1715194645005726000,2.177725830078125,-0.9965972900390625,-0.0091552734375,-0.0729827880859375
1715194645015800800,2.18780078125,-0.9975433349609375,-0.0092926025390625,-0.0738525390625
1715194645025875000,2.197875,-0.99652099609375,-0.0109100341796875,-0.07232666015625
1715194645035949000,2.207948974609375,-0.9971160888671875,-0.0102081298828125,-0.0731201171875
1715194645046023000,2.21802294921875,-0.9971466064453125,-0.010009765625,-0.0729217529296875
1715194645056098000,2.22809814453125,-0.995086669921875,-0.010284423828125,-0.0726470947265625
1715194645066172000,2.238171875,-0.996490478515625,-0.0091552734375,-0.074249267578125
1715194645076246000,2.24824609375,-0.998565673828125,-0.010711669921875,-0.0733795166015625
1715194645086321000,2.25832080078125,-0.9958343505859375,-0.0103302001953125,-0.071685791015625
1715194645096395000,2.26839501953125,-0.9956512451171875,-0.0101165771484375,-0.0728302001953125
1715194645106468900,2.27846875,-0.9957275390625,-0.0102386474609375,-0.0725250244140625
1715194645116544000,2.2885439453125,-0.995452880859375,-0.010040283203125,-0.0725555419921875
1715194645126617900,2.298617919921875,-0.996307373046875,-0.01025390625,-0.073577880859375
1715194645136691700,2.308691650390625,-0.995697021484375,-0.0103912353515625,-0.0718231201171875
1715194645146766800,2.318766845703125,-0.99737548828125,-0.010223388671875,-0.072265625
1715194645156840700,2.3288408203125,-0.996826171875,-0.0106964111328125,-0.072845458984375
1715194645166914800,2.338914794921875,-0.99700927734375,-0.0094757080078125,-0.0746917724609375
1715194645176989700,2.34898974609375,-0.9983062744140625,-0.0093231201171875,-0.0721588134765625
1715194645187063800,2.359063720703125,-0.998870849609375,-0.01043701171875,-0.0727996826171875
1715194645197138000,2.369137939453125,-0.993682861328125,-0.0091552734375,-0.0734405517578125
1715194645207212000,2.3792119140625,-0.994049072265625,-0.008941650390625,-0.072845458984375
1715194645217287000,2.389286865234375,-0.99822998046875,-0.0088348388671875,-0.0729522705078125
1715194645227361000,2.399361083984375,-0.9947662353515625,-0.0110626220703125,-0.0740509033203125
1715194645237435000,2.409434814453125,-0.994415283203125,-0.0101318359375,-0.0736236572265625
1715194645247510000,2.419510009765625,-0.9972076416015625,-0.0106658935546875,-0.0736083984375
1715194645257583900,2.429583984375,-0.9980621337890625,-0.0105133056640625,-0.071441650390625
1715194645267658000,2.439657958984375,-0.996185302734375,-0.00897216796875,-0.070953369140625
1715194645277732900,2.44973291015625,-0.9968109130859375,-0.010223388671875,-0.0710906982421875
1715194645287807000,2.459806884765625,-0.9971160888671875,-0.009796142578125,-0.0731353759765625
1715194645297880800,2.469880859375,-0.9964141845703125,-0.0101470947265625,-0.0738067626953125
1715194645307956000,2.4799560546875,-0.99700927734375,-0.009002685546875,-0.0729217529296875
1715194645318029800,2.49002978515625,-0.9951934814453125,-0.0104522705078125,-0.0726165771484375
1715194645328104000,2.50010400390625,-0.9958953857421875,-0.010528564453125,-0.0728759765625
1715194645338178800,2.5101787109375,-0.9958343505859375,-0.0099639892578125,-0.0746612548828125
1715194645348253000,2.5202529296875,-0.9962615966796875,-0.0105743408203125,-0.072601318359375
1715194645358326800,2.530326904296875,-0.9960479736328125,-0.00958251953125,-0.0733795166015625
1715194645368401000,2.54040087890625,-0.9972686767578125,-0.0083465576171875,-0.0716552734375
1715194645378476000,2.55047607421875,-0.99664306640625,-0.0101165771484375,-0.07159423828125
1715194645388550000,2.5605498046875,-0.9961395263671875,-0.00970458984375,-0.073272705078125
1715194645398624000,2.5706240234375,-0.9971160888671875,-0.008636474609375,-0.0723419189453125
1715194645408699000,2.580698974609375,-0.99749755859375,-0.0092315673828125,-0.0719146728515625
1715194645418773000,2.59077294921875,-0.99652099609375,-0.0098876953125,-0.07415771484375
1715194645428846800,2.600846923828125,-0.9978790283203125,-0.010284423828125,-0.072509765625
1715194645438922000,2.610921875,-0.996185302734375,-0.009002685546875,-0.0730438232421875
1715194645448995800,2.620995849609375,-0.9955596923828125,-0.0096893310546875,-0.0739288330078125
1715194645459070000,2.631070068359375,-0.9960479736328125,-0.0109710693359375,-0.0726776123046875
1715194645469144800,2.641144775390625,-0.9951171875,-0.009918212890625,-0.072723388671875
1715194645479219000,2.651218994140625,-0.9969329833984375,-0.010223388671875,-0.0736541748046875
1715194645489292800,2.661292724609375,-0.99462890625,-0.008880615234375,-0.071319580078125
1715194645499368000,2.671367919921875,-0.9955596923828125,-0.0102691650390625,-0.0727081298828125
1715194645509441800,2.68144189453125,-0.9960479736328125,-0.011322021484375,-0.07379150390625
1715194645519516000,2.691515869140625,-0.99713134765625,-0.009307861328125,-0.0735626220703125
1715194645529590000,2.701590087890625,-0.997467041015625,-0.010467529296875,-0.074493408203125
1715194645539665000,2.711664794921875,-0.997650146484375,-0.010894775390625,-0.07421875
1715194645549739000,2.721739013671875,-0.9970550537109375,-0.0095367431640625,-0.0740966796875
1715194645559813000,2.731813232421875,-0.997161865234375,-0.0089263916015625,-0.0724639892578125
1715194645569888000,2.741887939453125,-0.9972381591796875,-0.00970458984375,-0.072998046875
1715194645579962000,2.751962158203125,-0.996124267578125,-0.0099334716796875,-0.07183837890625
1715194645590036000,2.762035888671875,-0.9974822998046875,-0.0098876953125,-0.0724639892578125
1715194645600111000,2.772111083984375,-0.9968109130859375,-0.009368896484375,-0.0730743408203125
1715194645610185000,2.78218505859375,-0.9965972900390625,-0.0110015869140625,-0.072601318359375
1715194645620258800,2.7922587890625,-0.99560546875,-0.009521484375,-0.0722808837890625
1715194645630334000,2.802333984375,-0.9964752197265625,-0.0104522705078125,-0.0743408203125
1715194645640407800,2.81240771484375,-0.996124267578125,-0.009796142578125,-0.0740203857421875
1715194645650482000,2.82248193359375,-0.9974365234375,-0.0095062255859375,-0.0725250244140625
1715194645660556800,2.832556884765625,-0.9961395263671875,-0.0095977783203125,-0.072998046875
1715194645670631000,2.842630859375,-0.997589111328125,-0.009979248046875,-0.074188232421875
1715194645680704800,2.852704833984375,-0.996124267578125,-0.0100250244140625,-0.072784423828125
1715194645690779000,2.86277880859375,-0.9972686767578125,-0.010711669921875,-0.0712127685546875
1715194645700853800,2.872853759765625,-0.99639892578125,-0.0111846923828125,-0.072235107421875
1715194645710928000,2.882927978515625,-0.9958953857421875,-0.01025390625,-0.0714111328125
1715194645721002000,2.893001953125,-0.997528076171875,-0.0093231201171875,-0.072296142578125
1715194645731076900,2.903076904296875,-0.996856689453125,-0.0085906982421875,-0.0708770751953125
1715194645741151000,2.91315087890625,-0.996826171875,-0.011138916015625,-0.0726318359375
1715194645751225000,2.92322509765625,-0.996826171875,-0.010589599609375,-0.072998046875
1715194645761300000,2.933300048828125,-0.9963836669921875,-0.01202392578125,-0.072479248046875
1715194645771374000,2.9433740234375,-0.996917724609375,-0.009368896484375,-0.0702056884765625
1715194645781448000,2.953447998046875,-0.9963836669921875,-0.00921630859375,-0.07183837890625
1715194645791523000,2.963523193359375,-0.996429443359375,-0.0104522705078125,-0.0721282958984375
1715194645801597000,2.973596923828125,-0.9969635009765625,-0.0090789794921875,-0.0731353759765625
1715194645811671000,2.983671142578125,-0.9964752197265625,-0.0112457275390625,-0.072784423828125
1715194645821746000,2.993745849609375,-0.9968109130859375,-0.0101776123046875,-0.0748138427734375
1715194645831820000,3.003820068359375,-0.995697021484375,-0.010772705078125,-0.0723724365234375
1715194645841894000,3.013893798828125,-0.9969024658203125,-0.0106353759765625,-0.073211669921875
1715194645851967700,3.0239677734375,-0.9972686767578125,-0.0088653564453125,-0.071319580078125
1715194645862043000,3.03404296875,-0.9966888427734375,-0.010345458984375,-0.07275390625
1715194645872116700,3.04411669921875,-0.9966278076171875,-0.010345458984375,-0.07293701171875
1715194645882190800,3.05419091796875,-0.9958648681640625,-0.009918212890625,-0.07177734375
1715194645892266000,3.064265869140625,-0.9965667724609375,-0.009796142578125,-0.0707550048828125
1715194645902340000,3.074340087890625,-0.9965362548828125,-0.0093841552734375,-0.072540283203125
1715194645912414000,3.0844140625,-0.9962005615234375,-0.0101776123046875,-0.07177734375
1715194645922489000,3.094489013671875,-0.997467041015625,-0.0093994140625,-0.072723388671875
1715194645932563000,3.10456298828125,-0.997528076171875,-0.0094451904296875,-0.0710296630859375
1715194645942637000,3.114636962890625,-0.9966278076171875,-0.0086669921875,-0.0720367431640625
1715194645952712000,3.1247119140625,-0.99774169921875,-0.009063720703125,-0.0736083984375
1715194645962786000,3.1347861328125,-0.9982147216796875,-0.009246826171875,-0.0718841552734375
1715194645972860200,3.144860107421875,-0.997039794921875,-0.00860595703125,-0.073150634765625
1715194645982934000,3.15493408203125,-0.9968719482421875,-0.009979248046875,-0.07366943359375
1715194645993009200,3.165009033203125,-0.9967803955078125,-0.0096588134765625,-0.0728912353515625
1715194646003083000,3.1750830078125,-0.9969329833984375,-0.008453369140625,-0.0721588134765625
1715194646013157000,3.1851572265625,-0.997314453125,-0.00811767578125,-0.071258544921875
1715194646023232000,3.19523193359375,-0.99810791015625,-0.0093994140625,-0.070556640625
1715194646033306000,3.20530615234375,-0.997161865234375,-0.0090789794921875,-0.0716094970703125
1715194646043380000,3.2153798828125,-0.996185302734375,-0.009979248046875,-0.071258544921875
1715194646053455000,3.225455078125,-0.996307373046875,-0.00994873046875,-0.071685791015625
1715194646063529000,3.235529052734375,-0.99517822265625,-0.009307861328125,-0.072509765625
1715194646073603000,3.24560302734375,-0.996856689453125,-0.00927734375,-0.0724945068359375
1715194646083678000,3.255677978515625,-0.9957733154296875,-0.0091705322265625,-0.071197509765625
1715194646093752000,3.265751953125,-0.9959869384765625,-0.0113983154296875,-0.072967529296875
1715194646103826000,3.275825927734375,-0.9960479736328125,-0.009613037109375,-0.0730133056640625
1715194646113901000,3.285901123046875,-0.9952545166015625,-0.0098419189453125,-0.0721282958984375
1715194646123975000,3.295974853515625,-0.997344970703125,-0.0096282958984375,-0.0697784423828125
1715194646134049300,3.30604931640625,-1.000152587890625,-0.0083465576171875,-0.0723876953125
1715194646144123100,3.316123046875,-0.998199462890625,-0.0106048583984375,-0.07470703125
1715194646154198300,3.3261982421875,-0.992584228515625,-0.01068115234375,-0.07354736328125
1715194646164272000,3.336272216796875,-0.99639892578125,-0.00982666015625,-0.071075439453125
1715194646174346000,3.346345947265625,-0.998138427734375,-0.0090484619140625,-0.0710296630859375
1715194646184421000,3.356421142578125,-0.995361328125,-0.0097503662109375,-0.075836181640625
1715194646194495000,3.366494873046875,-0.996795654296875,-0.0110015869140625,-0.072784423828125
1715194646204569000,3.376569091796875,-0.997955322265625,-0.009490966796875,-0.072418212890625
1715194646214644000,3.38664404296875,-0.9969940185546875,-0.00982666015625,-0.071746826171875
1715194646224718000,3.396718017578125,-0.9971771240234375,-0.0098876953125,-0.07183837890625
1715194646234792000,3.4067919921875,-0.9952239990234375,-0.009735107421875,-0.0704803466796875
1715194646244867000,3.4168671875,-0.9962921142578125,-0.0088348388671875,-0.072601318359375
1715194646254941000,3.42694091796875,-0.996734619140625,-0.0103302001953125,-0.0735015869140625
1715194646265015000,3.43701513671875,-0.997161865234375,-0.011199951171875,-0.072296142578125
1715194646275089200,3.447089111328125,-0.997344970703125,-0.0093536376953125,-0.0731201171875
1715194646285164000,3.4571640625,-0.9971771240234375,-0.011138916015625,-0.072601318359375
1715194646295238100,3.467238037109375,-0.998321533203125,-0.0096588134765625,-0.07354736328125
1715194646305312300,3.477312255859375,-0.9968109130859375,-0.009490966796875,-0.0728759765625
1715194646315387100,3.48738720703125,-0.99713134765625,-0.0093994140625,-0.071441650390625
1715194646325461200,3.497461181640625,-0.9972076416015625,-0.0100555419921875,-0.071990966796875
1715194646335535000,3.50753515625,-0.996246337890625,-0.009613037109375,-0.0726318359375
1715194646345610200,3.5176103515625,-0.9957122802734375,-0.0102081298828125,-0.072021484375
1715194646355684000,3.52768408203125,-0.9976806640625,-0.0094757080078125,-0.0730438232421875
1715194646365758200,3.53775830078125,-0.997528076171875,-0.009796142578125,-0.072601318359375
1715194646375833000,3.5478330078125,-0.996246337890625,-0.01092529296875,-0.072357177734375
1715194646385907200,3.5579072265625,-0.9958648681640625,-0.0097198486328125,-0.0727691650390625
1715194646395981000,3.56798095703125,-0.995880126953125,-0.009613037109375,-0.072479248046875
1715194646406055000,3.578054931640625,-0.9961700439453125,-0.01007080078125,-0.072265625
1715194646416130000,3.588130126953125,-0.997222900390625,-0.0104827880859375,-0.0720977783203125
1715194646426204000,3.598203857421875,-0.99530029296875,-0.0106964111328125,-0.073394775390625
1715194646436278000,3.608278076171875,-0.9964447021484375,-0.0094757080078125,-0.0713653564453125
1715194646446353000,3.618352783203125,-0.9960174560546875,-0.010284423828125,-0.072509765625
1715194646456427000,3.628427001953125,-0.9964752197265625,-0.0096588134765625,-0.0731658935546875
1715194646466501000,3.638501220703125,-0.9963531494140625,-0.0098876953125,-0.0738983154296875
1715194646476576000,3.648575927734375,-0.995361328125,-0.010711669921875,-0.073883056640625
1715194646486650000,3.658650146484375,-0.9972076416015625,-0.0098876953125,-0.0721588134765625
1715194646496724200,3.66872412109375,-0.9958953857421875,-0.0093841552734375,-0.0717926025390625
1715194646506799000,3.678799072265625,-0.99639892578125,-0.00909423828125,-0.07275390625
1715194646516873200,3.688873291015625,-0.9974822998046875,-0.0095977783203125,-0.0728759765625
1715194646526947000,3.698947021484375,-0.996246337890625,-0.009796142578125,-0.072601318359375
1715194646537021200,3.709021240234375,-0.9983673095703125,-0.010345458984375,-0.0726776123046875
1715194646547096000,3.719095947265625,-0.9967193603515625,-0.0091705322265625,-0.0729827880859375
1715194646557170200,3.729170166015625,-0.9957427978515625,-0.0076751708984375,-0.072357177734375
1715194646567244000,3.739244140625,-0.9951934814453125,-0.0091094970703125,-0.073455810546875
1715194646577319200,3.749319091796875,-0.9964599609375,-0.00811767578125,-0.072784423828125
1715194646587393000,3.75939306640625,-0.9974822998046875,-0.009521484375,-0.0740814208984375
1715194646597467100,3.769467041015625,-0.99664306640625,-0.0089111328125,-0.072540283203125
1715194646607542000,3.7795419921875,-0.996612548828125,-0.0094451904296875,-0.0714569091796875
1715194646617616100,3.7896162109375,-0.9963836669921875,-0.009796142578125,-0.0714569091796875
1715194646627690000,3.79968994140625,-0.9949951171875,-0.0099029541015625,-0.0726776123046875
1715194646637765000,3.80976513671875,-0.9970245361328125,-0.009429931640625,-0.0721893310546875
1715194646647839000,3.8198388671875,-0.9964141845703125,-0.0087890625,-0.071807861328125
1715194646657913000,3.8299130859375,-0.9964752197265625,-0.009979248046875,-0.072540283203125
1715194646667987200,3.8399873046875,-0.996978759765625,-0.0098419189453125,-0.072174072265625
1715194646678062000,3.85006201171875,-0.9955902099609375,-0.011016845703125,-0.0732269287109375
1715194646688136200,3.86013623046875,-0.99560546875,-0.0093841552734375,-0.0727996826171875
1715194646698210000,3.8702099609375,-0.9965667724609375,-0.0100250244140625,-0.072906494140625
1715194646708285200,3.88028515625,-0.9962921142578125,-0.0097503662109375,-0.0726165771484375
1715194646718359000,3.890359130859375,-0.9962615966796875,-0.0092620849609375,-0.0715789794921875
1715194646728433200,3.90043310546875,-0.9973907470703125,-0.009063720703125,-0.0726318359375
1715194646738508000,3.910508056640625,-0.997161865234375,-0.00994873046875,-0.071807861328125
1715194646748582100,3.92058203125,-0.9969024658203125,-0.0104217529296875,-0.073944091796875
1715194646758656000,3.930656005859375,-0.9947357177734375,-0.009490966796875,-0.0726318359375
1715194646768731100,3.940731201171875,-0.995574951171875,-0.01055908203125,-0.07208251953125
1715194646778805000,3.950804931640625,-0.9984893798828125,-0.008544921875,-0.07135009765625
1715194646788879000,3.960879150390625,-0.997772216796875,-0.0090484619140625,-0.0733184814453125
1715194646798953000,3.970952880859375,-0.99664306640625,-0.010894775390625,-0.0718231201171875
1715194646809028000,3.981028076171875,-0.9973907470703125,-0.0102691650390625,-0.0713348388671875
1715194646819102000,3.99110205078125,-0.9968109130859375,-0.0082855224609375,-0.071563720703125
1715194646829176000,4.001176025390625,-0.9966888427734375,-0.009735107421875,-0.0725555419921875
1715194646839251000,4.0112509765625,-0.9962005615234375,-0.01019287109375,-0.0713348388671875
1715194646849325000,4.021324951171875,-0.996429443359375,-0.0106964111328125,-0.0730133056640625
1715194646859399200,4.031399169921875,-0.9964141845703125,-0.0096435546875,-0.073516845703125
1715194646869474000,4.04147412109375,-0.9960479736328125,-0.0097503662109375,-0.0731964111328125
1715194646879548200,4.051548095703125,-0.99652099609375,-0.01025390625,-0.0725250244140625
1715194646889622000,4.0616220703125,-0.9987945556640625,-0.0098114013671875,-0.0714263916015625
1715194646899697200,4.071697265625,-0.9979705810546875,-0.0092620849609375,-0.07269287109375
1715194646909771000,4.08177099609375,-0.9962615966796875,-0.0088348388671875,-0.0703582763671875
1715194646919845000,4.09184521484375,-0.9967193603515625,-0.0110626220703125,-0.0721588134765625
1715194646929919000,4.1019189453125,-0.99615478515625,-0.0093994140625,-0.0714569091796875
1715194646939994000,4.111994140625,-0.9966888427734375,-0.00958251953125,-0.0717315673828125
1715194646950068000,4.12206787109375,-0.9964752197265625,-0.0091705322265625,-0.07318115234375
1715194646960142000,4.13214208984375,-0.99658203125,-0.009521484375,-0.0719451904296875
1715194646970217000,4.142217041015625,-0.9959564208984375,-0.0104522705078125,-0.0721588134765625
1715194646980291000,4.152291015625,-0.995941162109375,-0.0101318359375,-0.073211669921875
1715194646990365000,4.162364990234375,-0.9977569580078125,-0.010223388671875,-0.0721893310546875
1715194647000440000,4.172440185546875,-0.9976806640625,-0.0104522705078125,-0.0716400146484375
1715194647010514000,4.182513916015625,-0.99664306640625,-0.0103759765625,-0.0731048583984375
1715194647020588000,4.192588134765625,-0.9971771240234375,-0.011260986328125,-0.072906494140625
1715194647030663000,4.202662841796875,-0.9961395263671875,-0.0087738037109375,-0.075164794921875
1715194647040737000,4.212737060546875,-0.9952545166015625,-0.00823974609375,-0.0720367431640625
1715194647050811100,4.22281103515625,-0.99615478515625,-0.0094757080078125,-0.0717315673828125
1715194647060885000,4.232885009765625,-0.9963531494140625,-0.011993408203125,-0.0717315673828125
1715194647070960000,4.242960205078125,-0.9969329833984375,-0.0109405517578125,-0.07220458984375
1715194647081034000,4.253033935546875,-0.9978485107421875,-0.009368896484375,-0.0727996826171875
1715194647091108000,4.263108154296875,-0.9966583251953125,-0.0092010498046875,-0.0728912353515625
1715194647101183000,4.273182861328125,-0.9979248046875,-0.0108184814453125,-0.072418212890625
1715194647111257000,4.283257080078125,-0.995330810546875,-0.009735107421875,-0.0717620849609375
1715194647121331000,4.2933310546875,-0.995635986328125,-0.0080413818359375,-0.0714874267578125
1715194647131406000,4.303406005859375,-0.997650146484375,-0.0102691650390625,-0.0703277587890625
1715194647141480000,4.31347998046875,-0.9974822998046875,-0.0096282958984375,-0.0731353759765625
1715194647151554000,4.323553955078125,-0.9962005615234375,-0.0094451904296875,-0.0744781494140625
1715194647161629000,4.33362890625,-0.9971466064453125,-0.0089263916015625,-0.0726776123046875
1715194647171703000,4.343703125,-0.9968414306640625,-0.008819580078125,-0.0724639892578125
1715194647181777000,4.35377685546875,-0.99627685546875,-0.0104217529296875,-0.071624755859375
1715194647191851300,4.363851318359375,-0.9971923828125,-0.0106353759765625,-0.0710906982421875
1715194647201926000,4.37392578125,-0.9986114501953125,-0.0095062255859375,-0.0718231201171875
1715194647212000300,4.384000244140625,-0.9954986572265625,-0.0105133056640625,-0.0719451904296875
1715194647222074000,4.39407421875,-0.996673583984375,-0.008819580078125,-0.0726318359375
1715194647232149200,4.404149169921875,-0.9993438720703125,-0.010040283203125,-0.07135009765625
1715194647242223000,4.41422314453125,-0.99658203125,-0.0107879638671875,-0.0733795166015625
1715194647252297000,4.424296875,-0.994659423828125,-0.0101318359375,-0.0730438232421875
1715194647262372000,4.4343720703125,-0.9965667724609375,-0.010955810546875,-0.0713653564453125
1715194647272446000,4.444446044921875,-0.998046875,-0.0088653564453125,-0.072540283203125
1715194647282520000,4.45452001953125,-0.9976654052734375,-0.0103607177734375,-0.072113037109375
1715194647292595200,4.46459521484375,-0.9971771240234375,-0.01025390625,-0.0716705322265625
1715194647302669000,4.4746689453125,-0.995269775390625,-0.0093994140625,-0.0708770751953125
1715194647312743000,4.484742919921875,-0.9969482421875,-0.0097808837890625,-0.0716552734375
1715194647322817000,4.494817138671875,-0.9952239990234375,-0.0103759765625,-0.0718536376953125
1715194647332892000,4.504891845703125,-0.996673583984375,-0.01019287109375,-0.073272705078125
1715194647342966000,4.514966064453125,-0.997589111328125,-0.0100250244140625,-0.07171630859375
1715194647353040000,4.525039794921875,-0.996795654296875,-0.0103302001953125,-0.072509765625
1715194647363115000,4.535114990234375,-0.99639892578125,-0.0097503662109375,-0.072052001953125
1715194647373188900,4.54518896484375,-0.99652099609375,-0.0102081298828125,-0.0734405517578125
1715194647383263200,4.55526318359375,-0.9956817626953125,-0.0087432861328125,-0.071990966796875
1715194647393337900,4.565337890625,-0.99786376953125,-0.0095977783203125,-0.072509765625
1715194647403412200,4.575412109375,-0.997100830078125,-0.0096282958984375,-0.0722503662109375
1715194647413486000,4.585486083984375,-0.9972991943359375,-0.009246826171875,-0.072509765625
1715194647423560200,4.595560302734375,-0.9963531494140625,-0.010345458984375,-0.0711517333984375
1715194647433635000,4.605635009765625,-0.995147705078125,-0.0098114013671875,-0.0730438232421875
1715194647443709200,4.615709228515625,-0.9958343505859375,-0.0105133056640625,-0.0716705322265625
1715194647453783000,4.625782958984375,-0.9962921142578125,-0.010009765625,-0.0712738037109375
1715194647463858200,4.635858154296875,-0.9965057373046875,-0.0106048583984375,-0.071685791015625
1715194647473932000,4.64593212890625,-0.996826171875,-0.0105743408203125,-0.071868896484375
1715194647484006000,4.656005859375,-0.9955596923828125,-0.0094451904296875,-0.0728607177734375
1715194647494081000,4.6660810546875,-0.9957427978515625,-0.010009765625,-0.0723724365234375
1715194647504155000,4.67615478515625,-0.99578857421875,-0.01019287109375,-0.0709991455078125
1715194647514229000,4.68622900390625,-0.9978179931640625,-0.0101776123046875,-0.072052001953125
1715194647524304000,4.696303955078125,-0.997467041015625,-0.009735107421875,-0.072296142578125
1715194647534378000,4.7063779296875,-0.9963531494140625,-0.0108184814453125,-0.0734405517578125
1715194647544451800,4.716451904296875,-0.9964141845703125,-0.01031494140625,-0.0717620849609375
1715194647554526200,4.726526123046875,-0.9971771240234375,-0.0107879638671875,-0.0716400146484375
1715194647564600800,4.736600830078125,-0.99664306640625,-0.009429931640625,-0.070587158203125
1715194647574675200,4.74667529296875,-0.997344970703125,-0.0098724365234375,-0.0710296630859375
1715194647584749000,4.7567490234375,-0.9972381591796875,-0.0105133056640625,-0.072113037109375
1715194647594824200,4.76682421875,-0.9974822998046875,-0.0104827880859375,-0.0715179443359375
1715194647604898000,4.77689794921875,-0.9960174560546875,-0.0100250244140625,-0.072723388671875
1715194647614972200,4.78697216796875,-0.99688720703125,-0.00897216796875,-0.0740509033203125
1715194647625047000,4.797047119140625,-0.996307373046875,-0.0097808837890625,-0.07275390625
1715194647635121200,4.80712109375,-0.99700927734375,-0.0093994140625,-0.073150634765625
1715194647645195000,4.817195068359375,-0.9980010986328125,-0.0093231201171875,-0.0719757080078125
1715194647655269000,4.82726904296875,-0.9983062744140625,-0.00732421875,-0.07257080078125
1715194647665344000,4.837343994140625,-0.9962921142578125,-0.0092315673828125,-0.0720062255859375
1715194647675418000,4.847418212890625,-0.9972991943359375,-0.010498046875,-0.073394775390625
1715194647685492000,4.857491943359375,-0.995697021484375,-0.0086669921875,-0.0726470947265625
1715194647695567000,4.867567138671875,-0.9959869384765625,-0.009368896484375,-0.0726776123046875
1715194647705641000,4.877640869140625,-0.998016357421875,-0.0096588134765625,-0.0723419189453125
1715194647715714800,4.88771484375,-0.9965972900390625,-0.00897216796875,-0.0716552734375
1715194647725790000,4.8977900390625,-0.9952545166015625,-0.00872802734375,-0.07257080078125
1715194647735863800,4.90786376953125,-0.997802734375,-0.0106048583984375,-0.0726318359375
1715194647745938200,4.917938232421875,-0.997528076171875,-0.011444091796875,-0.069854736328125
1715194647756012800,4.9280126953125,-0.9972991943359375,-0.00946044921875,-0.07208251953125
1715194647766087200,4.938087158203125,-0.99664306640625,-0.0096893310546875,-0.0727691650390625
1715194647776161000,4.9481611328125,-0.9969635009765625,-0.0097198486328125,-0.0710601806640625
1715194647786235100,4.958235107421875,-0.9955902099609375,-0.0104522705078125,-0.0706939697265625
1715194647796310000,4.96831005859375,-0.99542236328125,-0.0097503662109375,-0.07196044921875
1715194647806384000,4.978384033203125,-0.998199462890625,-0.0092010498046875,-0.0724945068359375
1715194647816458000,4.9884580078125,-0.99688720703125,-0.0100250244140625,-0.0733184814453125
1715194647826533000,4.998533203125,-0.995147705078125,-0.0087890625,-0.069488525390625
1715194647836607000,5.00860693359375,-0.9965667724609375,-0.00933837890625,-0.07183837890625
1715194647846681000,5.01868115234375,-0.9970855712890625,-0.0103759765625,-0.072174072265625
1715194647856756000,5.028755859375,-0.9964599609375,-0.01043701171875,-0.0723419189453125
1715194647866830000,5.038830078125,-0.996063232421875,-0.0099945068359375,-0.0720672607421875
1715194647876904000,5.048904052734375,-0.9944610595703125,-0.0089111328125,-0.07177734375
1715194647886979000,5.05897900390625,-0.997344970703125,-0.008697509765625,-0.07269287109375
1715194647897053000,5.069052978515625,-0.99639892578125,-0.00897216796875,-0.0716400146484375
1715194647907126800,5.079126708984375,-0.998291015625,-0.0086822509765625,-0.0696868896484375
1715194647917201000,5.089200927734375,-0.9960784912109375,-0.008331298828125,-0.0716705322265625
1715194647927275800,5.09927587890625,-0.996246337890625,-0.0081939697265625,-0.0724945068359375
1715194647937350000,5.109349853515625,-0.997650146484375,-0.00958251953125,-0.0722198486328125
1715194647947424000,5.119424072265625,-0.9964447021484375,-0.0103607177734375,-0.072174072265625
1715194647957499000,5.129498779296875,-0.9972991943359375,-0.0101776123046875,-0.07208251953125
1715194647967573000,5.139572998046875,-0.996002197265625,-0.009796142578125,-0.07354736328125
1715194647977646800,5.149646728515625,-0.99761962890625,-0.0101318359375,-0.07232666015625
1715194647987721000,5.159720947265625,-0.9973297119140625,-0.0103912353515625,-0.0715179443359375
1715194647997795800,5.1697958984375,-0.9971923828125,-0.0102996826171875,-0.0723419189453125
1715194648007870000,5.179869873046875,-0.9974365234375,-0.0097198486328125,-0.0714111328125
1715194648017943800,5.18994384765625,-0.9961090087890625,-0.010589599609375,-0.0703887939453125
1715194648028019000,5.20001904296875,-0.9967193603515625,-0.0097808837890625,-0.073455810546875
1715194648038092800,5.2100927734375,-0.99530029296875,-0.0099334716796875,-0.07342529296875
1715194648048167000,5.2201669921875,-0.9963836669921875,-0.0095977783203125,-0.0720977783203125
1715194648058241800,5.23024169921875,-0.9982452392578125,-0.01025390625,-0.0722808837890625
1715194648068316000,5.24031591796875,-0.996612548828125,-0.0108642578125,-0.0715179443359375
1715194648078389800,5.2503896484375,-0.9963226318359375,-0.01055908203125,-0.0724334716796875
1715194648088465000,5.26046484375,-0.99774169921875,-0.0090179443359375,-0.07220458984375
1715194648098538800,5.270538818359375,-0.996612548828125,-0.00970458984375,-0.0717926025390625
1715194648108613000,5.280613037109375,-0.996307373046875,-0.00994873046875,-0.073455810546875
1715194648118687000,5.29068701171875,-0.9963531494140625,-0.0089263916015625,-0.071136474609375
1715194648128762000,5.30076220703125,-0.996246337890625,-0.0088958740234375,-0.0729827880859375
1715194648138836000,5.3108359375,-0.9959869384765625,-0.0095977783203125,-0.0723724365234375
1715194648148909800,5.320909912109375,-0.9961700439453125,-0.0089263916015625,-0.07379150390625
1715194648158985000,5.33098486328125,-0.99700927734375,-0.009063720703125,-0.072052001953125
1715194648169058800,5.341058837890625,-0.996551513671875,-0.0094757080078125,-0.0724334716796875
1715194648179133000,5.3511328125,-0.9968719482421875,-0.0094757080078125,-0.0716400146484375
1715194648189207800,5.361207763671875,-0.99609375,-0.009552001953125,-0.071624755859375
1715194648199282000,5.371281982421875,-0.996826171875,-0.0090484619140625,-0.069610595703125
1715194648209355800,5.381355712890625,-0.99884033203125,-0.009796142578125,-0.0711822509765625
1715194648219430000,5.391429931640625,-0.9968109130859375,-0.0088348388671875,-0.07220458984375
1715194648229504800,5.4015048828125,-0.994842529296875,-0.01031494140625,-0.0718994140625
1715194648239579000,5.411578857421875,-0.9957427978515625,-0.0088348388671875,-0.072540283203125
1715194648249652700,5.42165283203125,-0.9972686767578125,-0.0091705322265625,-0.0708160400390625
1715194648259728000,5.431727783203125,-0.9955902099609375,-0.010711669921875,-0.07196044921875
1715194648269801700,5.4418017578125,-0.9950714111328125,-0.0095672607421875,-0.070770263671875
1715194648279876000,5.4518759765625,-0.9955596923828125,-0.01104736328125,-0.0715789794921875
1715194648289950700,5.46195068359375,-0.9971923828125,-0.0102081298828125,-0.0730438232421875
1715194648300025000,5.472025146484375,-0.9971771240234375,-0.0088043212890625,-0.0723114013671875
1715194648310099000,5.482098876953125,-0.99676513671875,-0.009246826171875,-0.07244873046875
1715194648320174000,5.492174072265625,-0.99786376953125,-0.011322021484375,-0.0713348388671875
1715194648330248000,5.502248046875,-0.997467041015625,-0.0112457275390625,-0.0730743408203125
1715194648340322000,5.512322021484375,-0.9965057373046875,-0.0093841552734375,-0.0728759765625
1715194648350396000,5.52239599609375,-0.9958343505859375,-0.010467529296875,-0.0708465576171875
1715194648360471000,5.532470947265625,-0.9959564208984375,-0.00958251953125,-0.072509765625
1715194648370545000,5.542544921875,-0.997833251953125,-0.0084686279296875,-0.0716552734375
1715194648380618800,5.55261865234375,-0.9977569580078125,-0.00946044921875,-0.0707550048828125
1715194648390694000,5.56269384765625,-0.9986724853515625,-0.009033203125,-0.0720672607421875
1715194648400767700,5.572767822265625,-0.99725341796875,-0.0114288330078125,-0.0697174072265625
1715194648410841900,5.582841796875,-0.997100830078125,-0.009674072265625,-0.0724945068359375
1715194648420916700,5.592916748046875,-0.9971160888671875,-0.0090484619140625,-0.0725555419921875
1715194648430990800,5.602990966796875,-0.9976806640625,-0.0087127685546875,-0.0721435546875
1715194648441065000,5.61306494140625,-0.9978790283203125,-0.0093536376953125,-0.0715789794921875
1715194648451139000,5.62313916015625,-0.9979095458984375,-0.0107879638671875,-0.0738983154296875
1715194648461214000,5.6332138671875,-0.9977264404296875,-0.009307861328125,-0.0739898681640625
1715194648471288000,5.6432880859375,-0.9958953857421875,-0.0096893310546875,-0.0720367431640625
1715194648481362000,5.65336181640625,-0.9967041015625,-0.0099029541015625,-0.0719757080078125
1715194648491437000,5.66343701171875,-0.99542236328125,-0.010162353515625,-0.0721893310546875
1715194648501511000,5.673510986328125,-0.9965972900390625,-0.0106048583984375,-0.072784423828125
1715194648511585000,5.6835849609375,-0.9968109130859375,-0.0084228515625,-0.071868896484375
1715194648521660000,5.693659912109375,-0.996490478515625,-0.010284423828125,-0.0708770751953125
1715194648531734000,5.703734130859375,-0.996246337890625,-0.0089569091796875,-0.0711669921875
1715194648541807900,5.713807861328125,-0.99737548828125,-0.0092315673828125,-0.070281982421875
1715194648551881700,5.7238818359375,-0.9959716796875,-0.0110321044921875,-0.0713958740234375
1715194648561956900,5.733956787109375,-0.996826171875,-0.009674072265625,-0.073394775390625
1715194648572031000,5.744031005859375,-0.99688720703125,-0.0094146728515625,-0.072021484375
1715194648582104800,5.754104736328125,-0.9978485107421875,-0.0097198486328125,-0.0714569091796875
1715194648592180000,5.764179931640625,-0.9980316162109375,-0.00909423828125,-0.0710601806640625
1715194648602253800,5.77425390625,-0.9965667724609375,-0.0101318359375,-0.0712127685546875
1715194648612328000,5.784327880859375,-0.9961700439453125,-0.0104827880859375,-0.071563720703125
1715194648622402800,5.79440283203125,-0.99566650390625,-0.0094451904296875,-0.0721893310546875
1715194648632477000,5.804476806640625,-0.9966888427734375,-0.0118255615234375,-0.0741119384765625
1715194648642551000,5.814551025390625,-0.9975433349609375,-0.0100555419921875,-0.07293701171875
1715194648652625000,5.824625,-0.99749755859375,-0.00970458984375,-0.0724334716796875
1715194648662700000,5.834699951171875,-0.9966583251953125,-0.0106353759765625,-0.0727996826171875
1715194648672774000,5.84477392578125,-0.9967193603515625,-0.009033203125,-0.0719757080078125
1715194648682848000,5.854847900390625,-0.9964141845703125,-0.0102081298828125,-0.0727081298828125
1715194648692923000,5.8649228515625,-0.996429443359375,-0.0093994140625,-0.072174072265625
1715194648702997000,5.8749970703125,-0.9964447021484375,-0.009185791015625,-0.07037353515625
1715194648713070800,5.88507080078125,-0.99761962890625,-0.009033203125,-0.070648193359375
1715194648723146000,5.89514599609375,-0.9964141845703125,-0.010040283203125,-0.071807861328125
1715194648733219800,5.9052197265625,-0.99603271484375,-0.0102386474609375,-0.0718841552734375
1715194648743294000,5.9152939453125,-0.9962921142578125,-0.008758544921875,-0.07177734375
1715194648753367800,5.925367919921875,-0.9962005615234375,-0.0074920654296875,-0.072174072265625
1715194648763443000,5.93544287109375,-0.9970550537109375,-0.009063720703125,-0.0712738037109375
1715194648773516800,5.945516845703125,-0.997314453125,-0.0116729736328125,-0.0729217529296875
1715194648783591000,5.9555908203125,-0.997100830078125,-0.00970458984375,-0.0723419189453125
1715194648793665800,5.965665771484375,-0.99676513671875,-0.0080718994140625,-0.071990966796875
1715194648803740000,5.975739990234375,-0.99627685546875,-0.0095977783203125,-0.072052001953125
1715194648813814000,5.98581396484375,-0.9962158203125,-0.010406494140625,-0.0720367431640625
1715194648823889000,5.995888916015625,-0.9952239990234375,-0.009979248046875,-0.0715484619140625
1715194648833963000,6.005962890625,-0.996307373046875,-0.00860595703125,-0.0719757080078125
1715194648844036900,6.016036865234375,-0.9966583251953125,-0.009033203125,-0.0722198486328125
1715194648854111000,6.026111083984375,-0.9967193603515625,-0.0097198486328125,-0.0714263916015625
1715194648864185900,6.036185791015625,-0.99639892578125,-0.0090179443359375,-0.0717620849609375
1715194648874260000,6.046260009765625,-0.9972686767578125,-0.0088043212890625,-0.07171630859375
1715194648884333800,6.056333740234375,-0.9954071044921875,-0.0101470947265625,-0.071533203125
1715194648894408400,6.066408447265625,-0.99664306640625,-0.0095367431640625,-0.073944091796875
1715194648904482600,6.076482666015625,-0.9966583251953125,-0.0109710693359375,-0.0714111328125
1715194648914556400,6.086556396484375,-0.99664306640625,-0.0095367431640625,-0.072540283203125
1715194648924631600,6.096631591796875,-0.996368408203125,-0.0085601806640625,-0.0720672607421875
1715194648934705400,6.106705322265625,-0.9972686767578125,-0.0099639892578125,-0.0706787109375
1715194648944779500,6.116779541015625,-0.996734619140625,-0.0092315673828125,-0.0728912353515625
1715194648954853600,6.126853515625,-0.9959564208984375,-0.0098419189453125,-0.0712432861328125
1715194648964928500,6.136928466796875,-0.9966888427734375,-0.0088348388671875,-0.0725860595703125
1715194648975002600,6.147002685546875,-0.996337890625,-0.0100860595703125,-0.0707855224609375
1715194648985076500,6.157076416015625,-0.9963531494140625,-0.0096435546875,-0.0709686279296875
1715194648995151600,6.167151611328125,-0.996734619140625,-0.0102691650390625,-0.0725860595703125
1715194649005225500,6.1772255859375,-0.9960174560546875,-0.0094757080078125,-0.0712432861328125
1715194649015299600,6.187299560546875,-0.99578857421875,-0.0095672607421875,-0.072265625
1715194649025374500,6.19737451171875,-0.997100830078125,-0.0104522705078125,-0.073272705078125
1715194649035448600,6.207448486328125,-0.99615478515625,-0.010223388671875,-0.07220458984375
1715194649045522400,6.2175224609375,-0.9970703125,-0.0100555419921875,-0.0712127685546875
1715194649055596500,6.227596435546875,-0.99786376953125,-0.009185791015625,-0.0714874267578125
1715194649065671400,6.23767138671875,-0.9981842041015625,-0.00860595703125,-0.071807861328125
1715194649075745500,6.24774560546875,-0.995849609375,-0.009124755859375,-0.0741119384765625
1715194649085819400,6.2578193359375,-0.995635986328125,-0.00994873046875,-0.0716552734375
1715194649095894500,6.26789453125,-0.9964447021484375,-0.008392333984375,-0.073638916015625
1715194649105968400,6.277968505859375,-0.996246337890625,-0.009857177734375,-0.0709686279296875
1715194649116042500,6.28804248046875,-0.9982452392578125,-0.0115509033203125,-0.0706634521484375
1715194649126117400,6.298117431640625,-0.9958648681640625,-0.0091094970703125,-0.0720672607421875
1715194649136191500,6.30819140625,-0.9970703125,-0.00872802734375,-0.0727691650390625
1715194649146265600,6.318265625,-0.9956817626953125,-0.009765625,-0.07159423828125
1715194649156340500,6.328340576171875,-0.9959716796875,-0.00897216796875,-0.070343017578125
1715194649166414600,6.33841455078125,-0.9977264404296875,-0.0102081298828125,-0.071380615234375
1715194649176488700,6.34848876953125,-0.9968414306640625,-0.008758544921875,-0.0727081298828125
1715194649186562600,6.3585625,-0.9954986572265625,-0.0090789794921875,-0.071563720703125
1715194649196637700,6.3686376953125,-0.9959564208984375,-0.009674072265625,-0.070404052734375
1715194649206711600,6.378711669921875,-0.9969024658203125,-0.009429931640625,-0.07037353515625
1715194649216785400,6.388785400390625,-0.99652099609375,-0.010894775390625,-0.0715789794921875
1715194649226860500,6.398860595703125,-0.9962158203125,-0.01019287109375,-0.072784423828125
1715194649236934400,6.408934326171875,-0.99713134765625,-0.0102996826171875,-0.0713958740234375
1715194649247008500,6.419008544921875,-0.9963226318359375,-0.0102996826171875,-0.0715789794921875
1715194649257083400,6.42908349609375,-0.9978790283203125,-0.0089874267578125,-0.0697174072265625
1715194649267157500,6.439157470703125,-0.998291015625,-0.0081329345703125,-0.0725860595703125
1715194649277231400,6.4492314453125,-0.9954071044921875,-0.009368896484375,-0.0718536376953125
1715194649287305500,6.459305419921875,-0.994873046875,-0.0094451904296875,-0.07061767578125
1715194649297380400,6.46938037109375,-0.997955322265625,-0.0096588134765625,-0.0721435546875
1715194649307454500,6.479454345703125,-0.996490478515625,-0.009429931640625,-0.0734710693359375
1715194649317528600,6.489528564453125,-0.996002197265625,-0.008941650390625,-0.072418212890625
1715194649327603500,6.499603515625,-0.9959716796875,-0.0091400146484375,-0.07232666015625
1715194649337677600,6.509677490234375,-0.9976348876953125,-0.0109100341796875,-0.0721893310546875
1715194649347751700,6.519751708984375,-0.9969482421875,-0.009674072265625,-0.0702972412109375
1715194649357826600,6.52982666015625,-0.9978485107421875,-0.00921630859375,-0.072998046875
1715194649367900700,6.539900634765625,-0.9958953857421875,-0.0094146728515625,-0.072113037109375
1715194649377974500,6.549974609375,-0.996002197265625,-0.009307861328125,-0.0710906982421875
1715194649388048600,6.560048583984375,-0.9954071044921875,-0.0102081298828125,-0.072052001953125
1715194649398123500,6.57012353515625,-0.9965057373046875,-0.008819580078125,-0.0737762451171875
1715194649408197600,6.58019775390625,-0.99725341796875,-0.00946044921875,-0.07269287109375
1715194649418271500,6.590271484375,-0.9970245361328125,-0.00933837890625,-0.0721435546875
1715194649428346600,6.6003466796875,-0.9959869384765625,-0.0087127685546875,-0.0711822509765625
1715194649438420500,6.61042041015625,-0.99761962890625,-0.0087127685546875,-0.072479248046875
1715194649448494300,6.620494384765625,-0.997039794921875,-0.01007080078125,-0.0714111328125
1715194649458569500,6.630569580078125,-0.9975738525390625,-0.00946044921875,-0.072296142578125
1715194649468643300,6.640643310546875,-0.9985809326171875,-0.0084686279296875,-0.0726776123046875
1715194649478717400,6.650717529296875,-0.996124267578125,-0.0085601806640625,-0.0724639892578125
1715194649488791600,6.66079150390625,-0.9966888427734375,-0.00897216796875,-0.072906494140625
1715194649498866400,6.670866455078125,-0.997589111328125,-0.0105133056640625,-0.0724029541015625
1715194649508940500,6.6809404296875,-0.9976806640625,-0.009521484375,-0.0719451904296875
1715194649519014700,6.6910146484375,-0.9961090087890625,-0.009185791015625,-0.07403564453125
1715194649529089500,6.701089599609375,-0.9959869384765625,-0.0092315673828125,-0.073944091796875
1715194649539163600,6.71116357421875,-0.9961700439453125,-0.0108795166015625,-0.071502685546875
1715194649549237500,6.721237548828125,-0.996307373046875,-0.010009765625,-0.0718994140625
1715194649559312600,6.731312744140625,-0.99676513671875,-0.0093841552734375,-0.073760986328125
1715194649569386500,6.741386474609375,-0.996002197265625,-0.010406494140625,-0.0719451904296875
1715194649579460600,6.751460693359375,-0.9954681396484375,-0.01025390625,-0.070343017578125
1715194649589534500,6.761534423828125,-0.99560546875,-0.0083465576171875,-0.0700225830078125
1715194649599609600,6.771609619140625,-0.9966888427734375,-0.0090179443359375,-0.07183837890625
1715194649609683500,6.781683349609375,-0.9960174560546875,-0.0097503662109375,-0.07232666015625
1715194649619757300,6.79175732421875,-0.9967498779296875,-0.0099334716796875,-0.072540283203125
1715194649629832400,6.80183251953125,-0.9957733154296875,-0.00933837890625,-0.0720672607421875
1715194649639906600,6.811906494140625,-0.9954681396484375,-0.01019287109375,-0.0707244873046875
1715194649649980700,6.821980712890625,-0.9965667724609375,-0.0112457275390625,-0.0717010498046875
1715194649660055600,6.8320556640625,-0.99761962890625,-0.0103607177734375,-0.07122802734375
1715194649670129700,6.842129638671875,-0.9963836669921875,-0.01043701171875,-0.0732574462890625
1715194649680203500,6.85220361328125,-0.995361328125,-0.008880615234375,-0.072296142578125
1715194649690277600,6.862277587890625,-0.9957122802734375,-0.0099945068359375,-0.0715789794921875
1715194649700352500,6.8723525390625,-0.996429443359375,-0.0095977783203125,-0.0717010498046875
1715194649710426600,6.882426513671875,-0.995086669921875,-0.0089569091796875,-0.072998046875
1715194649720500500,6.89250048828125,-0.99566650390625,-0.009796142578125,-0.0728912353515625
1715194649730575600,6.90257568359375,-0.998138427734375,-0.0097503662109375,-0.071807861328125
1715194649740649500,6.9126494140625,-0.9966888427734375,-0.010223388671875,-0.0717620849609375
1715194649750723600,6.9227236328125,-0.9957122802734375,-0.0109100341796875,-0.0717315673828125
1715194649760798500,6.932798583984375,-0.997894287109375,-0.0095062255859375,-0.0695037841796875
1715194649770872600,6.94287255859375,-0.99688720703125,-0.0097198486328125,-0.0709381103515625
1715194649780946400,6.952946533203125,-0.9979248046875,-0.0089569091796875,-0.0717315673828125
1715194649791020500,6.9630205078125,-0.9963836669921875,-0.008880615234375,-0.071319580078125
1715194649801095400,6.973095458984375,-0.996429443359375,-0.0096893310546875,-0.072479248046875
1715194649811169500,6.98316943359375,-0.99615478515625,-0.009185791015625,-0.0721435546875
1715194649821243600,6.99324365234375,-0.997161865234375,-0.011260986328125,-0.0702972412109375
1715194649831318500,7.003318603515625,-0.99627685546875,-0.009735107421875,-0.0712432861328125
1715194649841392600,7.013392578125,-0.995147705078125,-0.009063720703125,-0.0723876953125
1715194649851466500,7.023466552734375,-0.9964752197265625,-0.0088348388671875,-0.070556640625
1715194649861541600,7.033541748046875,-0.99774169921875,-0.0092620849609375,-0.0719451904296875
1715194649871615700,7.04361572265625,-0.9955596923828125,-0.008636474609375,-0.0706939697265625
1715194649881689600,7.053689697265625,-0.9964141845703125,-0.0085906982421875,-0.0723724365234375
1715194649891763500,7.063763427734375,-0.99713134765625,-0.0089263916015625,-0.0713653564453125
1715194649901839000,7.073839111328125,-0.9964752197265625,-0.010009765625,-0.0717620849609375
1715194649911913000,7.083912841796875,-0.9965667724609375,-0.01055908203125,-0.0702362060546875
1715194649921987000,7.093987060546875,-0.99658203125,-0.00909423828125,-0.07061767578125
1715194649932062200,7.104062255859375,-0.9969482421875,-0.0096588134765625,-0.0700531005859375
1715194649942136000,7.114135986328125,-0.995025634765625,-0.00958251953125,-0.0711212158203125
1715194649952210000,7.1242099609375,-0.996612548828125,-0.009185791015625,-0.0710296630859375
1715194649962285000,7.13428515625,-0.99530029296875,-0.0098876953125,-0.07183837890625
1715194649972359000,7.14435888671875,-0.9966583251953125,-0.01007080078125,-0.0726165771484375
1715194649982433000,7.15443310546875,-0.9964599609375,-0.01019287109375,-0.0701751708984375
1715194649992507000,7.1645068359375,-0.9960174560546875,-0.0091094970703125,-0.0709991455078125
1715194650002582000,7.17458203125,-0.996734619140625,-0.009185791015625,-0.072784423828125
1715194650012655900,7.18465576171875,-0.996673583984375,-0.0092315673828125,-0.0715484619140625
1715194650022730200,7.194730224609375,-0.9967041015625,-0.0098419189453125,-0.07257080078125
1715194650032804900,7.204804931640625,-0.9973297119140625,-0.0089874267578125,-0.0726165771484375
1715194650042879200,7.214879150390625,-0.997283935546875,-0.0076904296875,-0.072357177734375
1715194650052953000,7.224953125,-0.998016357421875,-0.01007080078125,-0.0731964111328125
1715194650063027200,7.235027099609375,-0.9980621337890625,-0.0107269287109375,-0.0720062255859375
1715194650073102000,7.24510205078125,-0.9964599609375,-0.0101318359375,-0.0706787109375
1715194650083176200,7.25517626953125,-0.9980010986328125,-0.00909423828125,-0.072052001953125
1715194650093250000,7.26525,-0.9962005615234375,-0.010284423828125,-0.07196044921875
1715194650103325200,7.2753251953125,-0.996337890625,-0.0095977783203125,-0.072845458984375
1715194650113399000,7.28539892578125,-0.9969024658203125,-0.0093536376953125,-0.0726318359375
1715194650123473000,7.295472900390625,-0.9961700439453125,-0.00946044921875,-0.07122802734375
1715194650133548000,7.305548095703125,-0.9968414306640625,-0.01055908203125,-0.072235107421875
1715194650143622000,7.315621826171875,-0.9962310791015625,-0.0097503662109375,-0.0724639892578125
1715194650153696000,7.325696044921875,-0.996826171875,-0.010650634765625,-0.0723419189453125
1715194650163769900,7.335769775390625,-0.9960174560546875,-0.009124755859375,-0.072540283203125
1715194650173845000,7.345844970703125,-0.9967498779296875,-0.008514404296875,-0.0742034912109375
1715194650183918800,7.3559189453125,-0.9972076416015625,-0.0105133056640625,-0.0709686279296875
1715194650193993200,7.3659931640625,-0.9980926513671875,-0.0083160400390625,-0.0710296630859375
1715194650204067800,7.37606787109375,-0.9984588623046875,-0.0093994140625,-0.071685791015625
1715194650214142200,7.38614208984375,-0.9959869384765625,-0.010711669921875,-0.0723724365234375
1715194650224216000,7.396216064453125,-0.9959869384765625,-0.0102081298828125,-0.0723876953125
1715194650234291200,7.406291259765625,-0.9979400634765625,-0.0093536376953125,-0.071197509765625
1715194650244365000,7.416364990234375,-0.99639892578125,-0.0095977783203125,-0.072845458984375
1715194650254439200,7.426439208984375,-0.994354248046875,-0.0097503662109375,-0.07244873046875
1715194650264513000,7.436512939453125,-0.9960784912109375,-0.009613037109375,-0.071746826171875
1715194650274588200,7.446588134765625,-0.9979705810546875,-0.0086669921875,-0.0711517333984375
1715194650284662000,7.456662109375,-0.9962921142578125,-0.0099945068359375,-0.0710296630859375
1715194650294736100,7.466736083984375,-0.995391845703125,-0.0082244873046875,-0.0701141357421875
1715194650304811000,7.47681103515625,-0.995880126953125,-0.009307861328125,-0.0715789794921875
1715194650314885000,7.486885009765625,-0.9976348876953125,-0.0095977783203125,-0.0716705322265625
1715194650324959000,7.496958984375,-0.995758056640625,-0.0096893310546875,-0.0731658935546875
1715194650335032800,7.50703271484375,-0.9965057373046875,-0.0099639892578125,-0.0734710693359375
1715194650345108000,7.51710791015625,-0.9958343505859375,-0.0105743408203125,-0.0708770751953125
1715194650355181800,7.527181884765625,-0.9964447021484375,-0.008453369140625,-0.0715789794921875
1715194650365256200,7.537256103515625,-0.9975433349609375,-0.0110015869140625,-0.0710296630859375
1715194650375330800,7.547330810546875,-0.9963531494140625,-0.0092315673828125,-0.0714111328125
1715194650385405200,7.5574052734375,-0.997894287109375,-0.008544921875,-0.07257080078125
1715194650395479000,7.56747900390625,-0.996856689453125,-0.0090484619140625,-0.072540283203125
1715194650405554200,7.57755419921875,-0.9949493408203125,-0.0088348388671875,-0.0708160400390625
1715194650415628000,7.5876279296875,-0.9953460693359375,-0.0093994140625,-0.071380615234375
1715194650425702100,7.5977021484375,-0.9952545166015625,-0.0104827880859375,-0.0721435546875
1715194650435776000,7.60777587890625,-0.996185302734375,-0.01019287109375,-0.07122802734375
1715194650445851100,7.61785107421875,-0.9966888427734375,-0.0108184814453125,-0.07244873046875
1715194650455925000,7.627925048828125,-0.997100830078125,-0.009063720703125,-0.0715789794921875
1715194650465999000,7.6379990234375,-0.9971923828125,-0.00836181640625,-0.0734405517578125
1715194650476074000,7.648073974609375,-0.996002197265625,-0.010284423828125,-0.0721588134765625
1715194650486148000,7.658148193359375,-0.9965057373046875,-0.00958251953125,-0.0706634521484375
1715194650496222000,7.668221923828125,-0.99627685546875,-0.010009765625,-0.071136474609375
1715194650506295800,7.6782958984375,-0.996917724609375,-0.0106964111328125,-0.0716705322265625
1715194650516371000,7.688370849609375,-0.9971466064453125,-0.0096435546875,-0.071380615234375
1715194650526445000,7.698445068359375,-0.9959716796875,-0.008636474609375,-0.0723114013671875
1715194650536519200,7.708519287109375,-0.99481201171875,-0.0100555419921875,-0.07269287109375
1715194650546594000,7.718593994140625,-0.995635986328125,-0.0089569091796875,-0.071014404296875
1715194650556668200,7.728668212890625,-0.99749755859375,-0.0098419189453125,-0.071014404296875
1715194650566742000,7.738741943359375,-0.9966278076171875,-0.009979248046875,-0.07080078125
1715194650576817200,7.748817138671875,-0.9965972900390625,-0.008544921875,-0.072052001953125
1715194650586891000,7.75889111328125,-0.9972076416015625,-0.0071258544921875,-0.0714569091796875
1715194650596965000,7.768965087890625,-0.9969024658203125,-0.0073089599609375,-0.071044921875
1715194650607039000,7.7790390625,-0.9964752197265625,-0.00830078125,-0.0713043212890625
1715194650617114000,7.789114013671875,-0.99560546875,-0.0093231201171875,-0.0702667236328125
1715194650627188000,7.79918798828125,-0.996307373046875,-0.0090179443359375,-0.0730438232421875
1715194650637262000,7.809261962890625,-0.9967193603515625,-0.0106048583984375,-0.07080078125
1715194650647337000,7.8193369140625,-0.9959869384765625,-0.0097198486328125,-0.071441650390625
1715194650657411000,7.8294111328125,-0.997039794921875,-0.0104522705078125,-0.070465087890625
1715194650667485000,7.83948486328125,-0.9967498779296875,-0.0099334716796875,-0.0719451904296875
1715194650677559000,7.84955908203125,-0.9969482421875,-0.0091400146484375,-0.0728912353515625
1715194650687634000,7.859634033203125,-0.99725341796875,-0.0106048583984375,-0.0711669921875
1715194650697708000,7.8697080078125,-0.9964599609375,-0.0084228515625,-0.0717620849609375
1715194650707782100,7.8797822265625,-0.996368408203125,-0.00946044921875,-0.0717315673828125
1715194650717857000,7.88985693359375,-0.994903564453125,-0.00970458984375,-0.0719757080078125
1715194650727931100,7.89993115234375,-0.99542236328125,-0.00830078125,-0.0728607177734375
1715194650738005000,7.9100048828125,-0.9949798583984375,-0.0093231201171875,-0.0718841552734375
1715194650748080000,7.920080078125,-0.9960174560546875,-0.0087432861328125,-0.072265625
1715194650758154000,7.930154052734375,-0.9985504150390625,-0.0075531005859375,-0.0706787109375
1715194650768228000,7.94022802734375,-0.995758056640625,-0.008270263671875,-0.072418212890625
1715194650778302000,7.950302001953125,-0.99591064453125,-0.0099639892578125,-0.0705413818359375
1715194650788377000,7.960377197265625,-0.9970703125,-0.0102996826171875,-0.0714569091796875
1715194650798451000,7.970450927734375,-0.9974517822265625,-0.009796142578125,-0.0703582763671875
1715194650808525000,7.980525146484375,-0.9949188232421875,-0.010467529296875,-0.072509765625
1715194650818600000,7.990599853515625,-0.9964599609375,-0.008819580078125,-0.071380615234375
1715194650828674000,8.000674072265625,-0.996673583984375,-0.008941650390625,-0.0715484619140625
1715194650838748000,8.010747802734375,-0.9961700439453125,-0.0099334716796875,-0.07220458984375
1715194650848822000,8.020822021484374,-0.9971771240234375,-0.00897216796875,-0.0712127685546875
1715194650858897000,8.03089697265625,-0.997161865234375,-0.0083160400390625,-0.0710296630859375
1715194650868971000,8.040970947265626,-0.9962005615234375,-0.0095977783203125,-0.071197509765625
1715194650879045000,8.051045166015625,-0.9962005615234375,-0.009735107421875,-0.0723724365234375
1715194650889120000,8.0611201171875,-0.9968719482421875,-0.009490966796875,-0.072784423828125
1715194650899194400,8.0711943359375,-0.9970855712890625,-0.008148193359375,-0.0714111328125
1715194650909268200,8.081268310546875,-0.9971771240234375,-0.008056640625,-0.0694580078125
1715194650919342000,8.091342041015626,-0.99847412109375,-0.0085296630859375,-0.0712738037109375
1715194650929417200,8.101417236328125,-0.996734619140625,-0.0101318359375,-0.071868896484375
1715194650939491300,8.1114912109375,-0.995147705078125,-0.0085601806640625,-0.0721282958984375
1715194650949565200,8.121565185546874,-0.997406005859375,-0.0095367431640625,-0.0728912353515625
1715194650959640300,8.131640380859375,-0.9957122802734375,-0.0083160400390625,-0.0714263916015625
1715194650969714200,8.141714111328126,-0.996612548828125,-0.0099029541015625,-0.0731048583984375
1715194650979788000,8.1517880859375,-0.996612548828125,-0.0101165771484375,-0.071502685546875
1715194650989863200,8.16186328125,-0.9966278076171875,-0.00958251953125,-0.07208251953125
1715194650999937000,8.17193701171875,-0.9969329833984375,-0.009857177734375,-0.07012939453125
1715194651010011100,8.18201123046875,-0.995758056640625,-0.0093841552734375,-0.0727081298828125
1715194651020085000,8.1920849609375,-0.996978759765625,-0.0091400146484375,-0.0732421875
1715194651030160100,8.20216015625,-0.996673583984375,-0.0102081298828125,-0.07110595703125
1715194651040234000,8.21223388671875,-0.996551513671875,-0.0097808837890625,-0.071868896484375
1715194651050308400,8.222308349609374,-0.995880126953125,-0.00946044921875,-0.0720062255859375
1715194651060383000,8.232383056640625,-0.99505615234375,-0.0094451904296875,-0.0709075927734375
1715194651070457300,8.242457275390626,-0.9961395263671875,-0.0098419189453125,-0.070770263671875
1715194651080531200,8.25253125,-0.9997406005859375,-0.0079498291015625,-0.0717315673828125
1715194651090605300,8.262605224609375,-0.9979248046875,-0.0098114013671875,-0.0725555419921875
1715194651100680200,8.27268017578125,-0.9944915771484375,-0.0092926025390625,-0.072418212890625
1715194651110754300,8.28275439453125,-0.9976348876953125,-0.0089263916015625,-0.072113037109375
1715194651120828200,8.292828125,-0.996246337890625,-0.0098876953125,-0.0729827880859375
1715194651130903300,8.3029033203125,-0.99420166015625,-0.0084228515625,-0.0729522705078125
1715194651140977200,8.31297705078125,-0.9967193603515625,-0.00762939453125,-0.0711517333984375
1715194651151051000,8.323051025390624,-0.9968109130859375,-0.009246826171875,-0.0714874267578125
1715194651161125000,8.333125,-0.9974517822265625,-0.0097503662109375,-0.072540283203125
1715194651171200300,8.3432001953125,-0.99639892578125,-0.008544921875,-0.0713958740234375
1715194651181274000,8.353274169921875,-0.99603271484375,-0.0086669921875,-0.07012939453125
1715194651191348000,8.363347900390625,-0.99652099609375,-0.00933837890625,-0.0716094970703125
1715194651201423000,8.373423095703124,-0.997772216796875,-0.0102386474609375,-0.0714874267578125
1715194651211497000,8.3834970703125,-0.9964447021484375,-0.01031494140625,-0.0731201171875
1715194651221571300,8.3935712890625,-0.996673583984375,-0.0101470947265625,-0.071258544921875
1715194651231646000,8.40364599609375,-0.9952392578125,-0.0091552734375,-0.0713958740234375
1715194651241720300,8.41372021484375,-0.9963836669921875,-0.0096282958984375,-0.0717010498046875
1715194651251794200,8.423794189453124,-0.9966278076171875,-0.0092926025390625,-0.0722198486328125
1715194651261868300,8.433868408203125,-0.9956817626953125,-0.0099334716796875,-0.070709228515625
1715194651271943200,8.443943115234376,-0.9964141845703125,-0.009490966796875,-0.0718994140625
1715194651282017300,8.454017333984375,-0.996124267578125,-0.010009765625,-0.07366943359375
1715194651292091100,8.464091064453125,-0.9974212646484375,-0.0085906982421875,-0.07330322265625
1715194651302166300,8.474166259765624,-0.995452880859375,-0.0086669921875,-0.0721435546875
1715194651312240000,8.484240234375,-0.9964141845703125,-0.00927734375,-0.072723388671875
1715194651322314200,8.494314208984376,-0.9952392578125,-0.00927734375,-0.0719451904296875
1715194651332388000,8.50438818359375,-0.9964447021484375,-0.0106658935546875,-0.073272705078125
1715194651342463200,8.514463134765625,-0.99658203125,-0.0099639892578125,-0.0728302001953125
1715194651352537000,8.524537109375,-0.9969940185546875,-0.00970458984375,-0.072021484375
1715194651362611000,8.53461083984375,-0.9971160888671875,-0.009796142578125,-0.0723114013671875
1715194651372686000,8.54468603515625,-0.996429443359375,-0.01025390625,-0.0717315673828125
1715194651382760000,8.554760009765625,-0.9971771240234375,-0.0092926025390625,-0.071197509765625
1715194651392834300,8.564834228515625,-0.995513916015625,-0.00927734375,-0.071319580078125
1715194651402908200,8.574908203125,-0.9974822998046875,-0.0091705322265625,-0.07037353515625
1715194651412983300,8.5849833984375,-0.9973297119140625,-0.0097198486328125,-0.0702972412109375
1715194651423057200,8.59505712890625,-0.9972686767578125,-0.010101318359375,-0.0716552734375
1715194651433131300,8.60513134765625,-0.996307373046875,-0.009521484375,-0.0712890625
1715194651443206100,8.6152060546875,-0.9967498779296875,-0.0115509033203125,-0.0720367431640625
1715194651453280300,8.6252802734375,-0.997772216796875,-0.0096893310546875,-0.0709075927734375
1715194651463354000,8.63535400390625,-0.997314453125,-0.009124755859375,-0.069854736328125
1715194651473429200,8.64542919921875,-0.99603271484375,-0.009521484375,-0.0705718994140625
1715194651483503000,8.655503173828125,-0.9985504150390625,-0.0100250244140625,-0.0713043212890625
1715194651493577200,8.6655771484375,-0.996429443359375,-0.010101318359375,-0.0715179443359375
1715194651503651000,8.675651123046874,-0.994903564453125,-0.0095672607421875,-0.0720672607421875
1715194651513726200,8.685726318359375,-0.996673583984375,-0.009765625,-0.0718994140625
1715194651523800000,8.695800048828126,-0.99688720703125,-0.009033203125,-0.0724029541015625
1715194651533874200,8.705874267578125,-0.996490478515625,-0.009796142578125,-0.072784423828125
1715194651543949000,8.715948974609375,-0.996978759765625,-0.0084075927734375,-0.0699005126953125
1715194651554023200,8.726023193359374,-0.99700927734375,-0.0083770751953125,-0.0720977783203125
1715194651564097300,8.73609716796875,-0.995086669921875,-0.0099945068359375,-0.0713958740234375
1715194651574171100,8.746171142578126,-0.99615478515625,-0.0096282958984375,-0.0718231201171875
1715194651584246300,8.756246337890625,-0.9965057373046875,-0.008514404296875,-0.0717926025390625
1715194651594320100,8.766320068359375,-0.996551513671875,-0.0086669921875,-0.0709381103515625
1715194651604394200,8.776394287109374,-0.9952239990234375,-0.0104827880859375,-0.0728302001953125
1715194651614469000,8.78646923828125,-0.9972686767578125,-0.0084381103515625,-0.0714263916015625
1715194651624543200,8.796543212890626,-0.9968109130859375,-0.0103912353515625,-0.071441650390625
1715194651634617000,8.8066171875,-0.9983367919921875,-0.0106048583984375,-0.069671630859375
1715194651644691200,8.816691162109375,-0.997589111328125,-0.0089111328125,-0.0709228515625
1715194651654766000,8.82676611328125,-0.99725341796875,-0.0105133056640625,-0.0720672607421875
1715194651664840200,8.836840087890625,-0.997711181640625,-0.0096435546875,-0.071868896484375
1715194651674914000,8.8469140625,-0.9966583251953125,-0.0087127685546875,-0.071075439453125
1715194651684989200,8.8569892578125,-0.997650146484375,-0.009368896484375,-0.07281494140625
1715194651695063000,8.86706298828125,-0.9983367919921875,-0.009521484375,-0.0709991455078125
1715194651705137200,8.87713720703125,-0.997100830078125,-0.0106658935546875,-0.07159423828125
1715194651715211300,8.887211181640625,-0.9951629638671875,-0.009002685546875,-0.072357177734375
1715194651725286100,8.8972861328125,-0.9956512451171875,-0.009307861328125,-0.072418212890625
1715194651735360300,8.9073603515625,-0.9967803955078125,-0.0099334716796875,-0.0712890625
1715194651745434000,8.91743408203125,-0.997039794921875,-0.009124755859375,-0.0717010498046875
1715194651755509200,8.92750927734375,-0.996002197265625,-0.008544921875,-0.0723419189453125
1715194651765583000,8.9375830078125,-0.9974822998046875,-0.0103302001953125,-0.0715789794921875
1715194651775657200,8.9476572265625,-0.995635986328125,-0.0088958740234375,-0.072265625
1715194651785732400,8.957732421875,-0.9974822998046875,-0.0080108642578125,-0.0714263916015625
1715194651795806200,8.96780615234375,-0.9967193603515625,-0.0103759765625,-0.0712890625
1715194651805880000,8.977880126953124,-0.9947662353515625,-0.010589599609375,-0.0704193115234375
1715194651815954200,8.9879541015625,-0.996795654296875,-0.009033203125,-0.07171630859375
1715194651826029000,8.998029052734376,-0.9971466064453125,-0.00860595703125,-0.0711822509765625
1715194651836103200,9.008103271484375,-0.996826171875,-0.0100860595703125,-0.0699310302734375
1715194651846177000,9.018177001953125,-0.996978759765625,-0.0086669921875,-0.0707244873046875
1715194651856252200,9.028252197265624,-0.996612548828125,-0.0097503662109375,-0.0717620849609375
1715194651866326000,9.038325927734375,-0.9961090087890625,-0.008209228515625,-0.072265625
1715194651876400000,9.048400146484376,-0.996978759765625,-0.008453369140625,-0.07098388671875
1715194651886474200,9.05847412109375,-0.997802734375,-0.0087127685546875,-0.071624755859375
1715194651896548900,9.068548828125,-0.99627685546875,-0.010040283203125,-0.070892333984375
1715194651906623000,9.078623046875,-0.99755859375,-0.010009765625,-0.0727386474609375
1715194651916696800,9.08869677734375,-0.99761962890625,-0.0095062255859375,-0.073150634765625
1715194651926772000,9.09877197265625,-0.995513916015625,-0.0105438232421875,-0.072418212890625
1715194651936845800,9.108845703125,-0.995391845703125,-0.0091400146484375,-0.0723419189453125
1715194651946919700,9.118919677734375,-0.9967498779296875,-0.0084075927734375,-0.071685791015625
1715194651956993800,9.128993896484374,-0.997528076171875,-0.00848388671875,-0.0718536376953125
1715194651967068700,9.139068603515625,-0.9970550537109375,-0.009033203125,-0.0729522705078125
1715194651977142800,9.149142822265626,-0.9961395263671875,-0.01031494140625,-0.072662353515625
1715194651987216600,9.159216552734375,-0.9978485107421875,-0.00909423828125,-0.071563720703125
1715194651997291800,9.169291748046875,-0.9965362548828125,-0.0102996826171875,-0.070098876953125
1715194652007365600,9.17936572265625,-0.997161865234375,-0.00909423828125,-0.07220458984375
1715194652017439700,9.189439697265625,-0.99749755859375,-0.0078277587890625,-0.0711212158203125
1715194652027513900,9.199513916015626,-0.997283935546875,-0.0085601806640625,-0.0708465576171875
1715194652037588700,9.209588623046875,-0.9978485107421875,-0.0078125,-0.0715484619140625
1715194652047662800,9.219662841796875,-0.996826171875,-0.008270263671875,-0.0727081298828125
1715194652057737000,9.229737060546874,-0.9967193603515625,-0.00872802734375,-0.0715789794921875
1715194652067811800,9.239811767578125,-0.9968719482421875,-0.0096588134765625,-0.07080078125
1715194652077886000,9.249885986328126,-0.996826171875,-0.0104217529296875,-0.07110595703125
1715194652087959800,9.259959716796875,-0.99676513671875,-0.0102386474609375,-0.0703887939453125
1715194652098033700,9.27003369140625,-0.997283935546875,-0.01055908203125,-0.0706939697265625
1715194652108108800,9.28010888671875,-0.9961395263671875,-0.009735107421875,-0.06964111328125
1715194652118183000,9.290182861328125,-0.9959869384765625,-0.009521484375,-0.0713043212890625
1715194652128256800,9.3002568359375,-0.997711181640625,-0.0084228515625,-0.0723876953125
1715194652138332000,9.310331787109375,-0.9960174560546875,-0.0087127685546875,-0.07183837890625
1715194652148405800,9.32040576171875,-0.996612548828125,-0.0089569091796875,-0.071685791015625
1715194652158479600,9.330479736328124,-0.9983978271484375,-0.0092010498046875,-0.0724029541015625
1715194652168554800,9.3405546875,-0.996124267578125,-0.008880615234375,-0.0724639892578125
1715194652178628600,9.350628662109376,-0.9960479736328125,-0.00970458984375,-0.0714263916015625
1715194652188702700,9.36070263671875,-0.995880126953125,-0.010101318359375,-0.071624755859375
1715194652198776800,9.37077685546875,-0.9963531494140625,-0.008941650390625,-0.0706939697265625
1715194652208851700,9.380851806640624,-0.9979248046875,-0.00921630859375,-0.07098388671875
1715194652218925800,9.39092578125,-0.9947662353515625,-0.010009765625,-0.072296142578125
1715194652229000000,9.401,-0.996307373046875,-0.010009765625,-0.0724639892578125
1715194652239074800,9.41107470703125,-0.998992919921875,-0.00860595703125,-0.0699462890625
1715194652249149000,9.42114892578125,-0.995361328125,-0.00982666015625,-0.072174072265625
1715194652259222800,9.431222900390624,-0.9957275390625,-0.0106201171875,-0.072723388671875
1715194652269297000,9.441296875,-0.996978759765625,-0.009368896484375,-0.071044921875
1715194652279371800,9.451371826171876,-0.996185302734375,-0.009521484375,-0.070770263671875
1715194652289446000,9.46144580078125,-0.99658203125,-0.009002685546875,-0.071929931640625
1715194652299519700,9.471519775390625,-0.996551513671875,-0.008453369140625,-0.0720367431640625
1715194652309595000,9.481594970703124,-0.99664306640625,-0.009124755859375,-0.0728912353515625
1715194652319668700,9.491668701171875,-0.996185302734375,-0.0090179443359375,-0.0724334716796875
1715194652329742600,9.50174267578125,-0.996124267578125,-0.010162353515625,-0.0721282958984375
1715194652339816700,9.511816650390625,-0.996673583984375,-0.0093841552734375,-0.072418212890625
1715194652349891600,9.5218916015625,-0.9978485107421875,-0.00982666015625,-0.0718994140625
1715194652359965700,9.531965576171874,-0.9979705810546875,-0.0072784423828125,-0.071197509765625
1715194652370039800,9.542039794921875,-0.9964447021484375,-0.0098724365234375,-0.0712127685546875
1715194652380114700,9.55211474609375,-0.9972076416015625,-0.009979248046875,-0.0709381103515625
1715194652390188800,9.562188720703125,-0.9971923828125,-0.0079498291015625,-0.0721435546875
1715194652400263000,9.572262939453125,-0.9962158203125,-0.0084075927734375,-0.0724334716796875
1715194652410336800,9.582336669921874,-0.9957275390625,-0.008453369140625,-0.071746826171875
1715194652420412000,9.592411865234375,-0.9968414306640625,-0.009796142578125,-0.0708770751953125
1715194652430485800,9.60248583984375,-0.99627685546875,-0.010101318359375,-0.0729522705078125
1715194652440559900,9.612559814453125,-0.9969024658203125,-0.009857177734375,-0.0721588134765625
1715194652450634800,9.622634765625,-0.99725341796875,-0.009979248046875,-0.0717926025390625
1715194652460708900,9.632708984375,-0.996856689453125,-0.0100250244140625,-0.0716094970703125
1715194652470782700,9.64278271484375,-0.996978759765625,-0.0102996826171875,-0.0704193115234375
1715194652480856800,9.65285693359375,-0.9964599609375,-0.00885009765625,-0.0717010498046875
1715194652490931700,9.662931640625,-0.9974365234375,-0.01031494140625,-0.071929931640625
1715194652501005800,9.673005859375,-0.9963226318359375,-0.0095672607421875,-0.0728759765625
1715194652511079700,9.68307958984375,-0.9951171875,-0.0095672607421875,-0.07073974609375
1715194652521154800,9.69315478515625,-0.997161865234375,-0.009796142578125,-0.07244873046875
1715194652531228700,9.703228759765626,-0.996429443359375,-0.00921630859375,-0.0719757080078125
1715194652541302800,9.713302734375,-0.9948272705078125,-0.0086822509765625,-0.0728759765625
1715194652551377000,9.723376953125,-0.9954833984375,-0.00982666015625,-0.0722198486328125
1715194652561451800,9.73345166015625,-0.994598388671875,-0.0092315673828125,-0.0709686279296875
1715194652571526000,9.74352587890625,-0.996612548828125,-0.0078125,-0.0718841552734375
1715194652581599700,9.753599853515626,-0.998077392578125,-0.00897216796875,-0.0703125
1715194652591675000,9.7636748046875,-0.997802734375,-0.0087432861328125,-0.0690155029296875
1715194652601748700,9.773748779296875,-0.9975433349609375,-0.0094146728515625,-0.0704193115234375
1715194652611822800,9.78382275390625,-0.9967041015625,-0.00799560546875,-0.071563720703125
1715194652621897700,9.793897705078125,-0.9957122802734375,-0.0090484619140625,-0.0708465576171875
1715194652631971800,9.803971923828126,-0.9967193603515625,-0.009796142578125,-0.0718231201171875
1715194652642045700,9.814045654296875,-0.9974517822265625,-0.0082855224609375,-0.07379150390625
1715194652652119800,9.824119873046875,-0.9970855712890625,-0.0092620849609375,-0.0728302001953125
1715194652662194700,9.834194580078124,-0.998077392578125,-0.0094146728515625,-0.0719451904296875
1715194652672268800,9.844268798828125,-0.997772216796875,-0.0095062255859375,-0.0723724365234375
1715194652682342700,9.8543427734375,-0.9970550537109375,-0.008270263671875,-0.073638916015625
1715194652692417800,9.864417724609375,-0.996429443359375,-0.0078887939453125,-0.0716094970703125
1715194652702491600,9.87449169921875,-0.99700927734375,-0.0093994140625,-0.0720062255859375
1715194652712566000,9.88456591796875,-0.99725341796875,-0.0088348388671875,-0.0726318359375
1715194652722640000,9.894639892578125,-0.995819091796875,-0.0093994140625,-0.0705718994140625
1715194652732715000,9.904715087890626,-0.9959259033203125,-0.0086669921875,-0.0724945068359375
1715194652742788900,9.914788818359375,-0.9958343505859375,-0.009857177734375,-0.072509765625
1715194652752862700,9.92486279296875,-0.9970703125,-0.010498046875,-0.0719146728515625
1715194652762937900,9.934937744140624,-0.997100830078125,-0.009124755859375,-0.07135009765625
1715194652773011700,9.94501171875,-0.9980926513671875,-0.0096435546875,-0.071258544921875
1715194652783085800,9.9550859375,-0.995025634765625,-0.00872802734375,-0.07061767578125
1715194652793159700,9.96515966796875,-0.995330810546875,-0.00909423828125,-0.07061767578125
1715194652803234800,9.97523486328125,-0.9956512451171875,-0.0096893310546875,-0.072509765625
1715194652813308700,9.98530859375,-0.9953765869140625,-0.00909423828125,-0.072998046875
1715194652823382800,9.9953828125,-0.996124267578125,-0.0085906982421875,-0.0704345703125
1715194652833457700,10.005457763671876,-0.9954833984375,-0.0098724365234375,-0.0709075927734375
1715194652843531800,10.01553173828125,-0.996551513671875,-0.0091552734375,-0.0712432861328125
1715194652853605600,10.025605712890625,-0.995635986328125,-0.009552001953125,-0.0736083984375
1715194652863680000,10.035679931640624,-0.997711181640625,-0.00970458984375,-0.0703887939453125
1715194652873754600,10.045754638671875,-0.998779296875,-0.0102691650390625,-0.0706634521484375
1715194652883829000,10.0558291015625,-0.998077392578125,-0.0086212158203125,-0.0721435546875
1715194652893902800,10.06590283203125,-0.99530029296875,-0.008758544921875,-0.0708770751953125
1715194652903978000,10.07597802734375,-0.995941162109375,-0.0105743408203125,-0.07080078125
1715194652914052000,10.086052001953124,-0.99713134765625,-0.0102081298828125,-0.071868896484375
1715194652924126200,10.096126220703125,-0.9968109130859375,-0.009033203125,-0.071319580078125
1715194652934200000,10.106199951171876,-0.997039794921875,-0.0071868896484375,-0.0696563720703125
1715194652944275200,10.116275146484375,-0.9962921142578125,-0.00970458984375,-0.0731658935546875
1715194652954349000,10.12634912109375,-0.9967498779296875,-0.010040283203125,-0.0723876953125
1715194652964423200,10.136423095703124,-0.9969024658203125,-0.0088653564453125,-0.0702056884765625
1715194652974498000,10.146498046875,-0.995574951171875,-0.00836181640625,-0.0708770751953125
1715194652984572200,10.156572265625,-0.99609375,-0.0090789794921875,-0.071258544921875
1715194652994646000,10.16664599609375,-0.996978759765625,-0.0095367431640625,-0.0720062255859375
1715194653004719900,10.176719970703125,-0.995758056640625,-0.0099639892578125,-0.0716552734375
1715194653014795000,10.186794921875,-0.9976806640625,-0.0098419189453125,-0.07183837890625
1715194653024868900,10.196868896484375,-0.99761962890625,-0.010589599609375,-0.07049560546875
1715194653034943000,10.20694287109375,-0.997344970703125,-0.0092926025390625,-0.0695953369140625
1715194653045017900,10.217017822265625,-0.99761962890625,-0.0092010498046875,-0.0721282958984375
1715194653055092200,10.22709228515625,-0.9984893798828125,-0.008575439453125,-0.0718231201171875
1715194653065166000,10.237166015625,-0.997161865234375,-0.00860595703125,-0.0712432861328125
1715194653075240200,10.247240234375,-0.996917724609375,-0.0092315673828125,-0.072265625
1715194653085315000,10.257315185546876,-0.9979705810546875,-0.009521484375,-0.071380615234375
1715194653095389200,10.26738916015625,-0.99755859375,-0.00848388671875,-0.0709381103515625
1715194653105463000,10.277463134765625,-0.99737548828125,-0.0098724365234375,-0.072967529296875
1715194653115538200,10.2875380859375,-0.9969329833984375,-0.009979248046875,-0.070068359375
1715194653125612000,10.297612060546875,-0.99560546875,-0.0090179443359375,-0.0725860595703125
1715194653135686100,10.30768603515625,-0.99639892578125,-0.0079498291015625,-0.0718841552734375
1715194653145760000,10.317760009765625,-0.9959716796875,-0.00927734375,-0.0704193115234375
1715194653155835100,10.327835205078125,-0.997039794921875,-0.0092010498046875,-0.07135009765625
1715194653165909000,10.337908935546874,-0.99725341796875,-0.0098114013671875,-0.0713043212890625
1715194653175983000,10.347983154296875,-0.995849609375,-0.0086669921875,-0.0703887939453125
1715194653186058000,10.35805810546875,-0.99688720703125,-0.010223388671875,-0.071624755859375
1715194653196132000,10.368132080078125,-0.996551513671875,-0.0088348388671875,-0.0709686279296875
1715194653206206200,10.378206298828125,-0.9975433349609375,-0.0088348388671875,-0.0711669921875
1715194653216281000,10.388281005859374,-0.9975433349609375,-0.00726318359375,-0.0723114013671875
1715194653226355200,10.398355224609375,-0.997802734375,-0.0086212158203125,-0.0717315673828125
1715194653236429000,10.408428955078126,-0.997406005859375,-0.0080413818359375,-0.0711517333984375
1715194653246503200,10.418503173828125,-0.99639892578125,-0.009674072265625,-0.0719451904296875
1715194653256578000,10.428578125,-0.9958038330078125,-0.0097503662109375,-0.0716552734375
1715194653266652200,10.438652099609374,-0.99560546875,-0.0098724365234375,-0.071929931640625
1715194653276726000,10.44872607421875,-0.9974365234375,-0.0095367431640625,-0.071929931640625
1715194653286801200,10.45880126953125,-0.99652099609375,-0.008819580078125,-0.071075439453125
1715194653296875000,10.468875,-0.99652099609375,-0.009552001953125,-0.0696563720703125
1715194653306949000,10.47894921875,-0.9975738525390625,-0.010040283203125,-0.0704193115234375
1715194653317023000,10.48902294921875,-0.9970245361328125,-0.0108642578125,-0.0716400146484375
1715194653327098000,10.49909814453125,-0.9967041015625,-0.0096588134765625,-0.07171630859375
1715194653337172000,10.509171875,-0.99652099609375,-0.0078887939453125,-0.0713348388671875
1715194653347246000,10.51924609375,-0.9974365234375,-0.0095367431640625,-0.0707244873046875
1715194653357321000,10.529321044921875,-0.9947052001953125,-0.0102996826171875,-0.07342529296875
1715194653367395000,10.53939501953125,-0.9953460693359375,-0.0100860595703125,-0.072235107421875
1715194653377469200,10.54946923828125,-0.9985504150390625,-0.00970458984375,-0.070770263671875
1715194653387543000,10.55954296875,-0.9964752197265625,-0.0097503662109375,-0.0720062255859375
1715194653397618200,10.5696181640625,-0.9952392578125,-0.0089263916015625,-0.07366943359375
1715194653407692000,10.579692138671875,-0.997711181640625,-0.0086212158203125,-0.0723724365234375
1715194653417766100,10.58976611328125,-0.998321533203125,-0.0103607177734375,-0.072052001953125
1715194653427841300,10.59984130859375,-0.9962310791015625,-0.0103302001953125,-0.07196044921875
1715194653437915100,10.6099150390625,-0.9947357177734375,-0.009613037109375,-0.07049560546875
1715194653447989000,10.619989013671875,-0.9970855712890625,-0.0090179443359375,-0.0714111328125
1715194653458063000,10.63006298828125,-0.996795654296875,-0.009674072265625,-0.071502685546875
1715194653468138000,10.640137939453124,-0.9958038330078125,-0.010040283203125,-0.0713653564453125
1715194653478212000,10.650212158203125,-0.996612548828125,-0.0098724365234375,-0.0707244873046875
1715194653488286000,10.660285888671876,-0.996490478515625,-0.0087890625,-0.0710296630859375
1715194653498361000,10.670361083984375,-0.9972381591796875,-0.0086517333984375,-0.0704193115234375
1715194653508435000,10.68043505859375,-0.9971923828125,-0.00860595703125,-0.07232666015625
1715194653518509000,10.690509033203124,-0.9968414306640625,-0.00836181640625,-0.0719757080078125
1715194653528583200,10.700583251953125,-0.996978759765625,-0.009735107421875,-0.07281494140625
1715194653538658000,10.710657958984376,-0.996734619140625,-0.0093841552734375,-0.071380615234375
1715194653548732200,10.720732177734375,-0.9965057373046875,-0.0078277587890625,-0.07196044921875
1715194653558806300,10.73080615234375,-0.995819091796875,-0.0084991455078125,-0.070831298828125
1715194653568881200,10.740881103515624,-0.996337890625,-0.0095672607421875,-0.072845458984375
1715194653578955300,10.750955322265625,-0.9969940185546875,-0.0093231201171875,-0.0728759765625
1715194653589029000,10.761029052734376,-0.996795654296875,-0.0104827880859375,-0.07080078125
1715194653599103000,10.77110302734375,-0.9967041015625,-0.0084075927734375,-0.07232666015625
1715194653609178000,10.78117822265625,-0.996002197265625,-0.009063720703125,-0.0709228515625
1715194653619252000,10.791251953125,-0.9968109130859375,-0.0100860595703125,-0.0714111328125
1715194653629326000,10.801326171875,-0.9976959228515625,-0.0092315673828125,-0.0736236572265625
1715194653639401000,10.81140087890625,-0.99578857421875,-0.010284423828125,-0.072418212890625
1715194653649475000,10.82147509765625,-0.996246337890625,-0.0090179443359375,-0.070526123046875
1715194653659549000,10.831548828125,-0.9964141845703125,-0.009674072265625,-0.0723724365234375
1715194653669623000,10.841623046875,-0.996429443359375,-0.008697509765625,-0.0697479248046875
1715194653679698000,10.851697998046875,-0.99774169921875,-0.0087127685546875,-0.0725555419921875
1715194653689772000,10.86177197265625,-0.99859619140625,-0.0106201171875,-0.071044921875
1715194653699846100,10.87184619140625,-0.99755859375,-0.0098876953125,-0.07135009765625
1715194653709921000,10.881921142578125,-0.99603271484375,-0.0086822509765625,-0.071624755859375
1715194653719995100,10.8919951171875,-0.996185302734375,-0.0095672607421875,-0.0713348388671875
1715194653730069200,10.9020693359375,-0.996063232421875,-0.0074920654296875,-0.070648193359375
1715194653740144000,10.91214404296875,-0.9970550537109375,-0.00872802734375,-0.0724334716796875
1715194653750218200,10.92221826171875,-0.9956512451171875,-0.010467529296875,-0.0709228515625
1715194653760292000,10.9322919921875,-0.9964599609375,-0.0096588134765625,-0.070343017578125
1715194653770366200,10.9423662109375,-0.995635986328125,-0.0091705322265625,-0.0723876953125
1715194653780441000,10.952441162109375,-0.9974517822265625,-0.0103759765625,-0.0718231201171875
1715194653790515200,10.96251513671875,-0.997406005859375,-0.0099334716796875,-0.0733642578125
1715194653800589000,10.972589111328125,-0.996551513671875,-0.009307861328125,-0.0730743408203125
1715194653810663000,10.982662841796875,-0.9971466064453125,-0.009674072265625,-0.072265625
1715194653820738000,10.992738037109374,-0.9959564208984375,-0.0079803466796875,-0.069488525390625
1715194653830812000,11.00281201171875,-0.9969635009765625,-0.0084381103515625,-0.071563720703125
1715194653840886000,11.012885986328126,-0.9978179931640625,-0.0081329345703125,-0.071136474609375
1715194653850961000,11.0229609375,-0.9970245361328125,-0.0089569091796875,-0.07208251953125
1715194653861035000,11.033034912109375,-0.996795654296875,-0.00872802734375,-0.0712890625
1715194653871109000,11.043109130859374,-0.996917724609375,-0.009002685546875,-0.0717315673828125
1715194653881183200,11.053183349609375,-0.99627685546875,-0.00885009765625,-0.0708465576171875
1715194653891258000,11.063258056640626,-0.9964599609375,-0.008209228515625,-0.0715484619140625
1715194653901332500,11.07333251953125,-0.998199462890625,-0.0091094970703125,-0.0701751708984375
1715194653911406300,11.08340625,-0.9979400634765625,-0.0090484619140625,-0.0710296630859375
1715194653921481500,11.0934814453125,-0.995513916015625,-0.009124755859375,-0.0692596435546875
1715194653931555300,11.103555419921875,-0.9970245361328125,-0.0092620849609375,-0.0714874267578125
1715194653941629400,11.11362939453125,-0.995269775390625,-0.0086212158203125,-0.07073974609375
1715194653951703300,11.123703369140625,-0.997833251953125,-0.0085601806640625,-0.0704498291015625
1715194653961778400,11.1337783203125,-0.997100830078125,-0.0094146728515625,-0.0715484619140625
1715194653971852300,11.143852294921874,-0.99652099609375,-0.0091094970703125,-0.0717620849609375
1715194653981926400,11.153926513671875,-0.99713134765625,-0.0098419189453125,-0.0725250244140625
1715194653992001300,11.164001220703126,-0.9961090087890625,-0.010040283203125,-0.0704345703125
1715194654002075400,11.174075439453125,-0.9968109130859375,-0.0092926025390625,-0.0711212158203125
1715194654012149200,11.184149169921875,-0.9976043701171875,-0.00848388671875,-0.070037841796875
1715194654022224400,11.194224365234374,-0.9964599609375,-0.0096282958984375,-0.071441650390625
1715194654032298200,11.20429833984375,-0.996307373046875,-0.009521484375,-0.0717010498046875
1715194654042372400,11.214372314453126,-0.9952392578125,-0.0093231201171875,-0.0727691650390625
1715194654052446500,11.224446533203125,-0.9965362548828125,-0.00860595703125,-0.071990966796875
1715194654062521300,11.234521240234375,-0.99517822265625,-0.0088043212890625,-0.0704803466796875
1715194654072595500,11.244595458984374,-0.9962615966796875,-0.008270263671875,-0.0711517333984375
1715194654082669300,11.25466943359375,-0.9962158203125,-0.0098114013671875,-0.071807861328125
1715194654092744400,11.264744384765624,-0.996490478515625,-0.0091705322265625,-0.071990966796875
1715194654102818300,11.274818359375,-0.9964141845703125,-0.00927734375,-0.0731658935546875
1715194654112892400,11.284892333984375,-0.9968719482421875,-0.009765625,-0.07208251953125
1715194654122966300,11.29496630859375,-0.995849609375,-0.0098876953125,-0.0706634521484375
1715194654133041400,11.30504150390625,-0.9959716796875,-0.0107421875,-0.0712127685546875
1715194654143115300,11.315115234375,-0.9975738525390625,-0.009246826171875,-0.0701904296875
1715194654153189400,11.325189453125,-0.9962310791015625,-0.009490966796875,-0.069305419921875
1715194654163264300,11.33526416015625,-0.9982452392578125,-0.0091094970703125,-0.0714111328125
1715194654173338400,11.34533837890625,-0.99676513671875,-0.0082855224609375,-0.0720672607421875
1715194654183412200,11.355412109375,-0.99615478515625,-0.007965087890625,-0.0729522705078125
1715194654193486300,11.365486328125,-0.9969482421875,-0.0098114013671875,-0.0696563720703125
1715194654203561200,11.375561279296875,-0.9966888427734375,-0.0099639892578125,-0.07000732421875
1715194654213635300,11.38563525390625,-0.996795654296875,-0.008941650390625,-0.07171630859375
1715194654223709400,11.39570947265625,-0.9965667724609375,-0.00946044921875,-0.070343017578125
1715194654233784300,11.405784423828125,-0.9978485107421875,-0.0091094970703125,-0.0706329345703125
1715194654243858400,11.4158583984375,-0.996978759765625,-0.0090484619140625,-0.0706939697265625
1715194654253932300,11.425932373046875,-0.9974212646484375,-0.0098876953125,-0.0708465576171875
1715194654264006400,11.43600634765625,-0.9981231689453125,-0.0105438232421875,-0.06951904296875
1715194654274081300,11.446081298828124,-0.9972381591796875,-0.0096588134765625,-0.0713043212890625
1715194654284155400,11.4561552734375,-0.99755859375,-0.0090789794921875,-0.07012939453125
1715194654294229200,11.466229248046876,-0.99578857421875,-0.010009765625,-0.0702056884765625
1715194654304304400,11.476304443359375,-0.9972076416015625,-0.00921630859375,-0.0731048583984375
1715194654314378200,11.486378173828125,-0.997161865234375,-0.0091400146484375,-0.0707550048828125
1715194654324452400,11.496452392578124,-0.9965667724609375,-0.008819580078125,-0.0714111328125
1715194654334526200,11.506526123046875,-0.995819091796875,-0.0093994140625,-0.0717620849609375
1715194654344601300,11.516601318359376,-0.994964599609375,-0.0096282958984375,-0.07086181640625
1715194654354675200,11.52667529296875,-0.996612548828125,-0.010009765625,-0.071502685546875
1715194654364749300,11.536749267578125,-0.995361328125,-0.00982666015625,-0.0721435546875
1715194654374824200,11.54682421875,-0.99896240234375,-0.01007080078125,-0.0725555419921875
1715194654384898300,11.556898193359375,-0.9978179931640625,-0.01031494140625,-0.0711517333984375
1715194654394972400,11.566972412109376,-0.9970855712890625,-0.008941650390625,-0.070770263671875
1715194654405046300,11.57704638671875,-0.995025634765625,-0.0095367431640625,-0.0705718994140625
1715194654415121400,11.587121337890625,-0.9962158203125,-0.0093994140625,-0.0707244873046875
1715194654425195300,11.5971953125,-0.996795654296875,-0.0083465576171875,-0.0714874267578125
1715194654435269400,11.607269287109375,-0.9969940185546875,-0.0077972412109375,-0.0719451904296875
1715194654445344300,11.61734423828125,-0.9954833984375,-0.0093231201171875,-0.0707550048828125
1715194654455418400,11.62741845703125,-0.9975128173828125,-0.0092620849609375,-0.0717315673828125
1715194654465492200,11.6374921875,-0.995086669921875,-0.01043701171875,-0.0714874267578125
1715194654475566300,11.64756640625,-0.99591064453125,-0.009246826171875,-0.0706787109375
1715194654485641200,11.65764111328125,-0.9964141845703125,-0.0091400146484375,-0.07110595703125
1715194654495715300,11.66771533203125,-0.99755859375,-0.0097198486328125,-0.0719757080078125
1715194654505789200,11.6777890625,-0.99749755859375,-0.00811767578125,-0.0713653564453125
1715194654515864300,11.6878642578125,-0.9969329833984375,-0.0096893310546875,-0.0720367431640625
1715194654525938200,11.697938232421874,-0.995880126953125,-0.010650634765625,-0.0723114013671875
1715194654536012300,11.70801220703125,-0.9959869384765625,-0.00872802734375,-0.07159423828125
1715194654546086400,11.71808642578125,-0.99591064453125,-0.009002685546875,-0.071868896484375
1715194654556161300,11.728161376953125,-0.997955322265625,-0.008697509765625,-0.070556640625
1715194654566235400,11.7382353515625,-0.9963836669921875,-0.008331298828125,-0.0712738037109375
1715194654576309200,11.748309326171874,-0.994720458984375,-0.008880615234375,-0.0704345703125
1715194654586384400,11.75838427734375,-0.995635986328125,-0.0105133056640625,-0.071380615234375
1715194654596458500,11.76845849609375,-0.9968414306640625,-0.0108184814453125,-0.07232666015625
1715194654606532400,11.778532470703125,-0.9964752197265625,-0.0089111328125,-0.071807861328125
1715194654616606200,11.788606201171875,-0.996856689453125,-0.0094757080078125,-0.071258544921875
1715194654626681300,11.798681396484374,-0.9974517822265625,-0.008544921875,-0.0717620849609375
1715194654636755200,11.808755126953125,-0.997161865234375,-0.0083770751953125,-0.07098388671875
1715194654646829300,11.818829345703126,-0.995941162109375,-0.0086517333984375,-0.0713348388671875
1715194654656904200,11.828904296875,-0.99658203125,-0.0095672607421875,-0.07025146484375
1715194654666978300,11.838978271484375,-0.9971771240234375,-0.009735107421875,-0.0709991455078125
1715194654677052200,11.84905224609375,-0.997314453125,-0.0091094970703125,-0.0709381103515625
1715194654687126300,11.859126220703125,-0.9968719482421875,-0.009002685546875,-0.0718536376953125
1715194654697201200,11.869201171875,-0.99725341796875,-0.010223388671875,-0.0726776123046875
1715194654707275300,11.879275146484375,-0.9969024658203125,-0.0095672607421875,-0.0720977783203125
1715194654717349400,11.889349365234375,-0.9965972900390625,-0.0084228515625,-0.0722198486328125
1715194654727424300,11.89942431640625,-0.9952239990234375,-0.0101470947265625,-0.0709228515625
1715194654737498400,11.909498291015625,-0.99737548828125,-0.0105438232421875,-0.0702362060546875
1715194654747572500,11.919572509765626,-0.9958648681640625,-0.0107269287109375,-0.072906494140625
1715194654757646300,11.929646240234375,-0.996795654296875,-0.0084228515625,-0.0720367431640625
1715194654767721500,11.939721435546875,-0.99749755859375,-0.010040283203125,-0.070526123046875
1715194654777795300,11.94979541015625,-0.996551513671875,-0.00970458984375,-0.0706634521484375
1715194654787869200,11.959869140625,-0.9970703125,-0.008819580078125,-0.07037353515625
1715194654797944300,11.9699443359375,-0.9968414306640625,-0.0102081298828125,-0.0715484619140625
1715194654808018200,11.98001806640625,-0.9976806640625,-0.009552001953125,-0.07049560546875
1715194654818092300,11.99009228515625,-0.9962310791015625,-0.0085601806640625,-0.0723876953125
1715194654828166100,12.000166259765624,-0.997314453125,-0.0103912353515625,-0.0715179443359375
1715194654838241300,12.0102412109375,-0.996734619140625,-0.0098114013671875,-0.071441650390625
1715194654848315100,12.020315185546876,-0.996826171875,-0.0084686279296875,-0.0704498291015625
1715194654858389500,12.030389404296875,-0.996673583984375,-0.0091705322265625,-0.0708465576171875
1715194654868464000,12.040464111328125,-0.9967041015625,-0.0086517333984375,-0.0712432861328125
1715194654878538500,12.05053857421875,-0.9974822998046875,-0.0085601806640625,-0.0713043212890625
1715194654888612400,12.0606123046875,-0.9964752197265625,-0.0089569091796875,-0.0711669921875
1715194654898686200,12.070686279296876,-0.9970855712890625,-0.0078277587890625,-0.0714874267578125
1715194654908760300,12.08076025390625,-0.9967041015625,-0.009674072265625,-0.0727996826171875
1715194654918834200,12.090834228515625,-0.997467041015625,-0.009063720703125,-0.0717620849609375
1715194654928908300,12.100908203125,-0.9968719482421875,-0.009368896484375,-0.07122802734375
1715194654938983200,12.110983154296875,-0.996978759765625,-0.00909423828125,-0.0709228515625
1715194654949057300,12.121057373046876,-0.995513916015625,-0.009124755859375,-0.070159912109375
1715194654959131100,12.131131103515624,-0.9951324462890625,-0.0095367431640625,-0.07171630859375
1715194654969206300,12.141206298828125,-0.9963226318359375,-0.0088958740234375,-0.0694580078125
1715194654979280100,12.151280029296874,-0.9966888427734375,-0.0099029541015625,-0.0703277587890625
1715194654989354500,12.1613544921875,-0.995147705078125,-0.0106048583984375,-0.07293701171875
1715194654999428400,12.171428466796876,-0.996917724609375,-0.0090789794921875,-0.0714111328125
1715194655009503500,12.18150341796875,-0.9975128173828125,-0.0092620849609375,-0.071990966796875
1715194655019577300,12.191577392578125,-0.9971771240234375,-0.0089111328125,-0.071258544921875
1715194655029651200,12.201651123046876,-0.997039794921875,-0.009246826171875,-0.071563720703125
1715194655039725300,12.211725341796875,-0.9967498779296875,-0.0086669921875,-0.0719451904296875
1715194655049800400,12.221800537109376,-0.9964141845703125,-0.00775146484375,-0.07147216796875
1715194655059874300,12.231874267578124,-0.99639892578125,-0.009521484375,-0.0726318359375
1715194655069948200,12.2419482421875,-0.99688720703125,-0.008056640625,-0.071197509765625
1715194655080023300,12.252023193359374,-0.9952392578125,-0.011077880859375,-0.072509765625
1715194655090097200,12.26209716796875,-0.99652099609375,-0.0106964111328125,-0.0722198486328125
1715194655100171300,12.272171142578125,-0.996185302734375,-0.0092620849609375,-0.071044921875
1715194655110245000,12.2822451171875,-0.99609375,-0.008697509765625,-0.072967529296875
1715194655120320300,12.2923203125,-0.996307373046875,-0.00921630859375,-0.0704345703125
1715194655130394000,12.30239404296875,-0.9964752197265625,-0.0095672607421875,-0.0704498291015625
1715194655140468500,12.312468505859375,-0.9959564208984375,-0.0094146728515625,-0.07281494140625
1715194655150543000,12.322543212890626,-0.996002197265625,-0.0088958740234375,-0.0724029541015625
1715194655160617500,12.332617431640625,-0.9964752197265625,-0.011077880859375,-0.072174072265625
1715194655170691300,12.34269140625,-0.9964752197265625,-0.0108489990234375,-0.071441650390625
1715194655180766500,12.352766357421874,-0.996795654296875,-0.00860595703125,-0.0709075927734375
1715194655190840300,12.36284033203125,-0.9976043701171875,-0.00909423828125,-0.0702667236328125
1715194655200914400,12.37291455078125,-0.9970550537109375,-0.010223388671875,-0.07177734375
1715194655210988300,12.38298828125,-0.99713134765625,-0.0110931396484375,-0.0705718994140625
1715194655221063400,12.3930634765625,-0.997314453125,-0.0109405517578125,-0.0712890625
1715194655231137300,12.40313720703125,-0.9970855712890625,-0.0090179443359375,-0.0716705322265625
1715194655241211100,12.413211181640625,-0.9973602294921875,-0.0092620849609375,-0.0726318359375
1715194655251286300,12.423286376953126,-0.9968414306640625,-0.0094146728515625,-0.070220947265625
1715194655261360000,12.433360107421874,-0.995941162109375,-0.0094146728515625,-0.071624755859375
1715194655271434200,12.443434326171875,-0.9957427978515625,-0.00958251953125,-0.0707855224609375
1715194655281508000,12.453508056640626,-0.995941162109375,-0.00921630859375,-0.07012939453125
1715194655291583200,12.463583251953125,-0.9966583251953125,-0.0103607177734375,-0.071807861328125
1715194655301657000,12.473656982421875,-0.99664306640625,-0.0102996826171875,-0.072296142578125
1715194655311731500,12.4837314453125,-0.996337890625,-0.0091705322265625,-0.0726776123046875
1715194655321805300,12.493805419921875,-0.997711181640625,-0.0093536376953125,-0.0719146728515625
1715194655331880400,12.50388037109375,-0.9963226318359375,-0.0106048583984375,-0.0712738037109375
1715194655341954300,12.513954345703125,-0.9973297119140625,-0.008941650390625,-0.0711517333984375
1715194655352028400,12.5240283203125,-0.996551513671875,-0.008575439453125,-0.0711212158203125
1715194655362103300,12.534103271484375,-0.9965362548828125,-0.0088348388671875,-0.071319580078125
1715194655372177400,12.544177490234375,-0.9962005615234375,-0.009307861328125,-0.0704803466796875
1715194655382251300,12.554251220703126,-0.9969024658203125,-0.009185791015625,-0.0708770751953125
1715194655392326400,12.564326416015625,-0.9976959228515625,-0.00811767578125,-0.070159912109375
1715194655402400300,12.574400146484376,-0.9957427978515625,-0.0105438232421875,-0.071258544921875
1715194655412474400,12.584474365234374,-0.9963226318359375,-0.01141357421875,-0.0727081298828125
1715194655422548200,12.59454833984375,-0.99517822265625,-0.0096893310546875,-0.071319580078125
1715194655432623400,12.604623291015624,-0.9954376220703125,-0.009185791015625,-0.0709228515625
1715194655442697200,12.614697265625,-0.99627685546875,-0.0088043212890625,-0.07177734375
1715194655452771000,12.62477099609375,-0.9972686767578125,-0.0091552734375,-0.0717926025390625
1715194655462846200,12.63484619140625,-0.9953460693359375,-0.008575439453125,-0.0719146728515625
1715194655472920000,12.644920166015625,-0.996612548828125,-0.0089111328125,-0.0714569091796875
1715194655482994400,12.654994384765626,-0.996368408203125,-0.0095062255859375,-0.071929931640625
1715194655493068300,12.665068359375,-0.9972076416015625,-0.010345458984375,-0.0709991455078125
1715194655503143400,12.675143310546876,-0.9962615966796875,-0.0100250244140625,-0.0710296630859375
1715194655513217300,12.68521728515625,-0.997467041015625,-0.009613037109375,-0.071990966796875
1715194655523291400,12.69529150390625,-0.9963836669921875,-0.0087432861328125,-0.071136474609375
1715194655533366300,12.7053662109375,-0.995391845703125,-0.0094451904296875,-0.0724945068359375
1715194655543440400,12.7154404296875,-0.9967803955078125,-0.0089874267578125,-0.07275390625
1715194655553514200,12.72551416015625,-0.99560546875,-0.0097198486328125,-0.0721282958984375
1715194655563588400,12.73558837890625,-0.9965667724609375,-0.008758544921875,-0.070098876953125
1715194655573663200,12.745663330078125,-0.9978790283203125,-0.0079803466796875,-0.0707244873046875
1715194655583737300,12.7557373046875,-0.99566650390625,-0.00860595703125,-0.0723114013671875
1715194655593811200,12.765811279296875,-0.997100830078125,-0.010162353515625,-0.0704498291015625
1715194655603886300,12.77588623046875,-0.9991607666015625,-0.007843017578125,-0.071746826171875
1715194655613960200,12.785960205078124,-0.9943389892578125,-0.0089874267578125,-0.0710906982421875
1715194655624034000,12.796033935546875,-0.99591064453125,-0.0092315673828125,-0.07122802734375
1715194655634108400,12.8061083984375,-0.9979400634765625,-0.008544921875,-0.0710601806640625
1715194655644183300,12.816183349609375,-0.99609375,-0.0092620849609375,-0.071319580078125
1715194655654257400,12.82625732421875,-0.99603271484375,-0.0109405517578125,-0.0719757080078125
