time,seconds_elapsed,z,y,x
1715194642848561400,0.0205615234375,0.024005729487538336,0.02770942457737401,-0.05370141424499452
1715194642858635300,0.03063525390625,-0.014480360773205756,0.017504530899971723,-0.038480171976611015
1715194642868709400,0.04070947265625,0.01061900916993618,-0.014426968351844698,-0.023477687025442718
1715194642878784300,0.0507841796875,0.025857494834065436,-0.006414214423857629,-0.028203400373086333
1715194642888858400,0.0608583984375,-0.016478256592154503,-0.014758739323168991,-0.03266870921887457
1715194642898932700,0.0709326171875,-0.011228665500879286,-0.018536960953939707,-0.01097498300075531
1715194642909008000,0.0810078125,0.00329085823893547,0.00970096274325624,0.012577668957039713
1715194642919081700,0.091081787109375,-0.007629764226078987,0.0041602797509171065,-0.029066008551791308
1715194642929155600,0.101155517578125,0.021689269238710403,-0.004421341839898377,-0.026872955486923453
1715194642939230700,0.111230712890625,0.04817278701663017,-0.003122954326122999,-0.007086451129615306
1715194642949304600,0.1213046875,0.014817629903554915,-0.0022966230371966956,-0.008006050192564725
1715194642959378700,0.131378662109375,-0.015221534529328345,-0.010267327921744436,-0.008865735761821269
1715194642969453800,0.141453857421875,0.012492401826381682,-0.021323796927183867,-0.012078560328483581
1715194642979527700,0.151527587890625,-0.018353402814269063,0.04781564414203167,0.010500497356802224
1715194642989601500,0.1616015625,-0.0030780922710895537,0.01677972375676036,0.003300941241532564
1715194642999676700,0.1716767578125,0.052388358885049814,-0.04127340115802362,0.030432036207988858
1715194643009750500,0.18175048828125,0.010863923841714859,0.03567649446642026,0.03180295923501253
1715194643019824600,0.19182470703125,-0.006382979035377502,0.0062723400014452636,0.01859722150750458
1715194643029898800,0.201898681640625,0.05808627826571464,-0.013364782480429858,0.015798530699685214
1715194643039973600,0.2119736328125,-0.0019429507613182068,0.018910744436085224,-0.010652034656703472
1715194643050047700,0.2220478515625,-0.07509177360236645,0.022958576788473874,-0.014159750516712664
1715194643060121900,0.232121826171875,-0.047640287575125694,-0.000659231093712151,0.007488529124483466
1715194643070196700,0.24219677734375,-0.016259060883522032,0.004350450294464826,-0.03331752851642668
1715194643080270800,0.252270751953125,-0.04505144012570381,-0.004195917319878935,-0.03131773300133645
1715194643090344700,0.2623447265625,-0.008263385954499243,0.036202162308339024,-0.010269465079903601
1715194643100419800,0.272419921875,0.0016787468671798705,0.037399975524470205,-0.08624430512711405
1715194643110493700,0.28249365234375,-0.01235094752907753,0.024429836651124057,-0.07061543190591037
1715194643120567800,0.29256787109375,-0.027820319339632988,0.005984280307684093,0.013159487432986497
1715194643130642700,0.302642578125,0.011645429608225821,0.005071311914920807,0.02728811215907335
1715194643140716800,0.312716796875,0.043617607930302615,-0.0018294439168646932,-0.02912373008839786
1715194643150790700,0.322790771484375,0.055063715574145314,0.008526585201639682,-0.045481355975568294
1715194643160865800,0.33286572265625,0.04900631523132324,-0.005387538257241249,-0.01217887889780104
1715194643170939600,0.342939697265625,0.0320242007702589,0.016553915644250808,-0.017899740762636063
1715194643181013500,0.353013427734375,-0.01895838297009468,0.008701412045583128,0.0018246581438928842
1715194643191088600,0.363088623046875,-0.004703647646307945,-0.0017405235243961215,-0.0034398382555693384
1715194643201162800,0.373162841796875,0.028425884017348288,-0.0010682502860203385,-0.010625073584541678
1715194643211236600,0.383236572265625,-0.00652034167945385,-0.0033577859953045843,-0.030922888464853165
1715194643221311700,0.393311767578125,-0.01263502516746521,-0.005494359632581472,0.0014414309799671173
1715194643231385600,0.403385498046875,0.008757891473174094,0.017552388629689813,0.016923516141623258
1715194643241459700,0.413459716796875,0.02131166809797287,0.014727275605825707,0.019639058710634708
1715194643251534600,0.42353466796875,0.011011807879805564,-0.0021707499015145002,-0.004990209502726793
1715194643261608700,0.433608642578125,0.0016050971090793608,0.0029942590456921605,-0.014845029367133973
1715194643271682800,0.443682861328125,-0.018562077128887175,0.03606465353379026,-0.03399440486468375
1715194643281757700,0.4537578125,-0.030349545556306836,0.02772587338867597,-0.05104373934306204
1715194643291831800,0.463831787109375,0.018496610677242276,0.014148900329135357,-0.05009754453413188
1715194643301905700,0.47390576171875,-0.011608604729175567,0.037116528073744846,-0.040247620040550824
1715194643311980800,0.483980712890625,-0.024475100564956664,0.03902474544839933,-0.03446626016013324
1715194643322054700,0.4940546875,-0.03601005553603172,0.02947795035354793,-0.03521050265617669
1715194643332128800,0.504128662109375,-0.020150807625055313,-0.00269029852990061,-0.006942220353335141
1715194643342203600,0.51420361328125,0.010953355690836906,0.011073009148286656,-0.025898119105398652
1715194643352277800,0.52427783203125,0.021676409757137298,-0.005362705210084096,-0.023675255424156785
1715194643362351600,0.5343515625,0.032084991046786304,-0.01671601087078452,-0.02876607575714588
1715194643372425700,0.54442578125,0.0592079757720232,-0.0007594400651752949,-0.03792326874621212
1715194643382500600,0.55450048828125,0.08212532550096512,-0.013656084444047882,-0.006595379677042365
1715194643392574700,0.56457470703125,0.1072884083300829,-0.03398638595500961,-0.005760244027152657
1715194643402648600,0.574648681640625,0.004932780227065086,0.012820976193621754,-0.009392682245373726
1715194643412723700,0.5847236328125,-0.06378478216826915,0.07942949227942153,-0.011891001867130399
1715194643422797600,0.594797607421875,0.015380524483323096,-0.0430188657190185,-0.04146437541916966
1715194643432871700,0.60487158203125,0.12745850517749785,-0.05726783802229911,-0.03431486899070441
1715194643442946600,0.614946533203125,0.04438742325901985,0.02173254212485626,-0.026810046318545937
1715194643453021000,0.62502099609375,-0.04541501274108886,0.029485978396376594,-0.029632264132425187
1715194643463094800,0.6350947265625,-0.010745265898108482,0.014952617927454412,-0.03645794543400407
1715194643473170000,0.645169921875,0.04951251118779182,0.003454579166974872,-0.01740223956927657
1715194643483243800,0.655243896484375,0.05099953487515449,0.005633000918291509,-0.06689509620852768
1715194643493317600,0.665317626953125,0.014326631516218184,0.017475176941324024,-0.06184935712628066
1715194643503392800,0.675392822265625,0.029836335337162016,-0.0016710110852960495,-0.05629639917425811
1715194643513466600,0.685466552734375,0.07432838801443577,0.004792586305085569,0.02280497539564967
1715194643523540700,0.695540771484375,0.040158991909027095,0.017910572683904318,-0.03421528107374906
1715194643533615600,0.70561572265625,-0.024695465317368506,0.000019544950686395168,-0.06312880247756839
1715194643543689700,0.715689697265625,0.03706570206880569,-0.016826074515981598,-0.0380122622039169
1715194643553763600,0.725763671875,0.0023415946900844573,-0.0022550306514836846,-0.03692000998780131
1715194643563838700,0.735838623046875,-0.018166940331459044,0.004662530184630304,-0.03237257581651211
1715194643573912600,0.74591259765625,-0.007414075648784637,0.009594479294633492,0.010300590870529413
1715194643583986700,0.755986572265625,-0.012405892586708068,0.013592271093372256,0.05923588669225573
1715194643594061600,0.7660615234375,-0.04157762653529644,-0.007086706857942045,0.03198379569463432
1715194643604135700,0.7761357421875,-0.0113327103972435,0.011965610606456175,-0.010426482272520661
1715194643614209500,0.78620947265625,-0.04301145873069763,0.02544674034239724,-0.03268010739572346
1715194643624284700,0.79628466796875,-0.030641221979260443,0.03043015477815643,-0.03946830623112619
1715194643634358500,0.806358642578125,-0.05461071110963821,0.025794713529851285,-0.05803294064328074
1715194643644433000,0.816432861328125,-0.04203647621870041,0.039751032162643966,-0.05710187033824622
1715194643654507500,0.826507568359375,-0.0430430229127407,0.030797910378314555,-0.0476416758146137
1715194643664582000,0.836581787109375,-0.023362755408883093,0.029696251013036815,-0.035847339254990215
1715194643674655700,0.84665576171875,-0.019838088414072988,0.03669753547669388,-0.015720204766467214
1715194643684731000,0.85673095703125,-0.04430734376013279,0.031170661813998593,-0.00654079994559288
1715194643694804700,0.8668046875,-0.010108137038350104,0.013656148376129567,-0.013670505695044993
1715194643704878800,0.87687890625,0.012258593070507048,-0.004432265092711896,-0.02543517776876688
1715194643714952700,0.88695263671875,0.017826748591661452,0.02042312176041305,0.012351532050967215
1715194643725027800,0.89702783203125,0.010811901393532752,0.015438072489993645,-0.003124927087500691
1715194643735101700,0.907101806640625,0.029528292301297186,0.023351357232034204,-0.00521451977789402
1715194643745175600,0.917175537109375,0.026662381476163864,0.005111716990545392,0.02741846054047346
1715194643755250700,0.927250732421875,0.020337270107865332,-0.006334381520142779,0.043541985410824414
1715194643765324500,0.937324462890625,0.00877425808608532,-0.007742787013342603,0.021509017300978303
1715194643775398700,0.947398681640625,0.029376316609978675,-0.0030138222626876084,0.053435091459006066
1715194643785473500,0.9574736328125,0.006576455780863762,0.006849116976093501,0.03516498301401734
1715194643795547600,0.967547607421875,-0.023834464573860167,0.007873756449250504,-0.0034022096589207645
1715194643805621500,0.97762158203125,-0.011450783818960189,0.014168006888404487,-0.011410963265225291
1715194643815696600,0.987696533203125,0.003622282150387764,-0.002824327572574839,-0.011266440228000283
1715194643825770500,0.9977705078125,0.0013654431343078613,0.026035289953229946,-0.007134601120278239
1715194643835844900,1.007844970703125,-0.006423895567655563,0.024839184636995196,-0.039259631916508074
1715194643845919500,1.01791943359375,-0.01754793165028095,0.0061777935857884585,-0.029234716182202098
1715194643855993900,1.027993896484375,0.016059738919138908,0.0011585041190497576,0.008158537340536714
1715194643866067700,1.038067626953125,0.04724047460258007,0.004638153795199469,-0.00716221977956593
1715194643876142800,1.048142822265625,0.040837621822953224,0.00129242356386967,-0.030411577941849826
1715194643886216700,1.058216796875,0.06569909135699271,-0.002377250525355339,-0.03589563537612557
1715194643896290300,1.068290283203125,0.07902969757318497,-0.0010841419748961925,-0.054742813056707376
1715194643906365400,1.078365478515625,0.03743044372797012,-0.0023969598728232084,-0.037812355717644096
1715194643916439300,1.088439208984375,0.02217033075392246,0.01622265612957999,-0.030063495156541466
1715194643926513200,1.09851318359375,0.03489244968295097,0.004726060407515615,-0.03773600254580378
1715194643936588300,1.10858837890625,0.00870879163444042,0.017485972329974172,-0.01890862554423511
1715194643946662100,1.118662109375,0.010796119302511214,0.017845946482475845,0.0005403904870152473
1715194643956736300,1.128736328125,0.00613514175415039,0.011529895203467458,-0.003338935164362192
1715194643966810000,1.13881005859375,0.026765257328748703,0.016269070820882914,-0.015603592649474739
1715194643976885200,1.14888525390625,0.007431026783585548,0.010189458646252751,-0.009923281990736723
1715194643986959000,1.158958984375,0.013066402322053909,0.0031365444600582122,-0.021921251363679766
1715194643997033500,1.169033447265625,0.03412555696368217,0.019855459673982112,-0.036327450922131535
1715194644007108000,1.179108154296875,0.03587386193573475,0.010106493070535362,-0.04093823265321553
1715194644017182500,1.189182373046875,0.03253331933617592,0.012921632689656688,-0.011279080513864755
1715194644027256300,1.19925634765625,0.030827099940180777,0.022280184336565433,-0.029945348669588565
1715194644037331500,1.20933154296875,0.023131869262456892,0.015754326231777666,-0.005960004382953047
1715194644047405300,1.2194052734375,0.014533552265167235,0.019395669275661928,-0.00012801029384136198
1715194644057479400,1.2294794921875,0.014157704690098761,0.0073506732900626955,0.011782207730412483
1715194644067554300,1.23955419921875,0.0019587328523397443,0.006011588439717889,0.00035794659219682217
1715194644077628400,1.24962841796875,-0.017129998499155044,0.010784867256134747,0.013286913204938173
1715194644087702300,1.259702392578125,-0.008687748846411705,0.006720156834181398,0.021888298942148682
1715194644097777400,1.26977734375,0.019217910689115523,0.00026748269661329687,0.01557794675156474
1715194644107851300,1.279851318359375,-0.0070353054642677305,0.011711352717597037,0.011058204304799438
1715194644117925000,1.289925048828125,-0.010815993046760558,0.01949838986461982,0.0072302435144782065
1715194644128000300,1.300000244140625,-0.004112111493945122,0.0010764335924759506,-0.002712473829090595
1715194644138074400,1.310074462890625,-0.0033878888726234435,-0.002185929204337299,-0.007928893303126096
1715194644148148200,1.320148193359375,0.011110592079162597,0.008623131778137758,0.003942307884991169
1715194644158223400,1.330223388671875,-0.013871873486042022,0.0064260875247418876,-0.003200038150325417
1715194644168297200,1.340297119140625,-0.030465280890464783,0.007049032595520839,-0.0032701077118515967
1715194644178371000,1.35037109375,-0.016667641684412954,0.01730239592399448,0.021906346055492756
1715194644188446200,1.3604462890625,0.00043254619836807247,0.022034977403841912,0.005832578611001372
1715194644198520000,1.37052001953125,-0.015080080232024192,0.00392500055716373,0.00805880329310894
1715194644208594400,1.380594482421875,-0.007408814951777458,0.012225677181594074,0.013665098867565393
1715194644218668300,1.390668212890625,-0.004969020584225654,0.009772858935687691,-0.0075523150756955145
1715194644228743400,1.400743408203125,-0.003265723797678947,0.00801563087166287,-0.017712474562227725
1715194644238817300,1.4108173828125,0.019375147077441215,0.02241051445165649,-0.0014095745369791983
1715194644248891400,1.420891357421875,0.025254852765798568,0.00583263340992853,-0.007198387071490287
1715194644258966300,1.43096630859375,0.023214871370792388,0.01950523059736006,-0.01613536143861711
1715194644269040400,1.441040283203125,0.011740122154355048,0.016602403561631215,-0.02989442219994962
1715194644279114200,1.4511142578125,0.005347790768742561,0.015087569418735802,-0.010997121767327188
1715194644289189400,1.461189453125,0.018854338073730468,0.009287386106839404,-0.02136069487147033
1715194644299263200,1.47126318359375,0.01080722521841526,0.007966786761255935,-0.02955518030822277
1715194644309337300,1.48133740234375,0.011722586497664451,0.002652633400633931,-0.020510434717684982
1715194644319412200,1.491412109375,0.005917115089297294,0.019622363304160534,-0.007719342205673455
1715194644329486300,1.501486328125,0.007873509854078293,0.01641345686079003,-0.023544980107992886
1715194644339560200,1.511560302734375,0.0027998598515987395,0.01507838146528229,-0.026263737547397612
1715194644349635300,1.52163525390625,0.01760813740491867,0.00605821319357492,-0.018715660255402326
1715194644359709200,1.531709228515625,0.013128361642360687,0.008264518465660512,-0.018991919913515447
1715194644369783000,1.541782958984375,0.01688742191493511,-0.0032512934135273098,-0.01310724578909576
1715194644379858200,1.551858154296875,0.013748539367318152,0.019661982928495855,0.004526464448496699
1715194644389932300,1.561932373046875,-0.015580430969595908,0.013873371323384344,0.0016983283504843712
1715194644400006400,1.57200634765625,-0.0010574000984430313,0.008128197001200169,-0.0033416385781019926
1715194644410080300,1.582080322265625,0.03949263695478439,0.006386285237316042,-0.0015070435620844363
1715194644420155400,1.5921552734375,-0.00032090251743793486,0.016460520006064325,-0.007644815664738416
1715194644430229200,1.602229248046875,0.0019131401449441908,-0.0009069131113123148,-0.002210807917267084
1715194644440303400,1.612303466796875,0.020308044013381002,0.003261723475996405,-0.013462269771844148
1715194644450378200,1.622378173828125,0.010421440771222115,0.011320745964813977,-0.014236249819025397
1715194644460452400,1.632452392578125,-0.002001402950286865,0.012817222467111422,-0.005660948371142149
1715194644470526200,1.642526123046875,0.0161035780608654,-0.00018625242025591433,-0.0026339287001639605
1715194644480601300,1.652601318359375,0.006072013390064239,0.007810098362201825,0.004942936294898391
1715194644490675200,1.66267529296875,0.011311083087325095,0.0045811994435731316,-0.009734408355131745
1715194644500749300,1.672749267578125,0.007114800441265106,-0.001219029534095898,-0.010526654711365699
1715194644510824200,1.68282421875,0.0024707740277051925,-0.006964834043942392,-0.00446443206295371
1715194644520898300,1.692898193359375,0.018043606212735173,0.0040598789832089095,-0.010282689887657761
1715194644530972200,1.70297216796875,0.004730535653233528,0.01079986389586702,-0.010820230830460785
1715194644541047300,1.71304736328125,0.008025485545396805,0.01022584513388574,-0.012937369114905594
1715194644551121200,1.72312109375,0.002639700853824615,0.005851328977243974,-0.015787936240434647
1715194644561195300,1.7331953125,0.01775485239923,0.006728404072718694,-0.014288199201971292
1715194644571270100,1.743270263671875,-0.007680033108592033,0.0174289357799571,0.004055120609700679
1715194644581344300,1.75334423828125,-0.010512626186013221,0.01435501736048609,-0.004931172791868448
1715194644591418400,1.76341845703125,-0.0016734861701726913,0.018007895578537134,-0.00461348514482379
1715194644601492200,1.7734921875,-0.01154138471186161,0.01683000177242793,-0.020286051377281546
1715194644611567400,1.7835673828125,-0.0003156418204307556,0.009843056361377238,-0.016723317394405603
1715194644621641500,1.793641357421875,-0.006447860965132713,0.027171901900880036,0.007929550890251994
1715194644631715300,1.80371533203125,0.012113631641864776,0.016453651873860508,-0.019103563594445584
1715194644641790500,1.81379052734375,0.00791851803958416,0.0023220314730890094,-0.005725903366133571
1715194644651864300,1.8238642578125,0.004027355819940567,-0.0014549754481296986,0.0010277356125414372
1715194644661938200,1.833938232421875,0.011369535276293754,0.011377444588113576,0.012265607333183288
1715194644672013300,1.844013427734375,0.012422843721508979,0.017415464377030728,-0.009946151409670709
1715194644682087200,1.854087158203125,0.01601297716796398,0.018367897130502388,0.0005400982260704041
1715194644692161300,1.864161376953125,0.0019493805021047592,0.008219784274790436,0.0018688626118004321
1715194644702236200,1.874236083984375,0.010790858605504034,-0.0011926621169783174,-0.014297624617442488
1715194644712310300,1.884310302734375,0.009611293432116507,0.0030185897693503646,-0.006730623429268598
1715194644722384100,1.894384033203125,-0.0027981062859296795,0.01242018597354181,-0.01345445179156959
1715194644732459300,1.904459228515625,0.005596212571859359,0.01371874701725319,-0.01098294711150229
1715194644742533000,1.914533203125,0.005150222370028495,0.010889277478680013,-0.006362593834474683
1715194644752607200,1.924607177734375,0.005154898545145988,0.0007702993859071284,0.0018204934254288673
1715194644762682000,1.93468212890625,0.009061258333921431,0.012277590031921862,0.007462590965628624
1715194644772756200,1.944756103515625,0.017300678890943527,0.016841536946594713,-0.014056217077001928
1715194644782830300,1.954830322265625,0.012068038934469222,0.018089326784294098,-0.0015346622213721274
1715194644792904400,1.964904541015625,0.0029448212802410125,0.005386661474406719,-0.0074357760239392515
1715194644802979300,1.974979248046875,0.013715221619606017,0.003633643794618547,-0.015726634507253767
1715194644813053400,1.985053466796875,0.011318681871891022,0.007440790125774219,-0.010166077770665288
1715194644823127300,1.995127197265625,0.006382394513487815,0.015221991187054662,-0.007055106143280863
1715194644833202400,2.005202392578125,0.005181202030181884,0.004619019836466759,-0.004751724571734666
1715194644843276300,2.0152763671875,-0.014119126245379447,0.020323469911376013,-0.017210004932805896
1715194644853350100,2.02535009765625,0.00668283876478672,0.017857490789797155,-0.013493395562469958
1715194644863425300,2.03542529296875,0.014466916769742965,0.0032977629037573932,-0.020385493163764475
1715194644873499400,2.04549951171875,0.0032370822250843046,0.01566584423072636,-0.007268091306835413
1715194644883573200,2.0555732421875,0.005781506010890006,0.0041728104389272625,0.0014210457790642976
1715194644893648400,2.0656484375,0.017908581656217573,-0.005716569282207638,-0.004970701084658503
1715194644903723000,2.075722900390625,0.013868950876593589,0.008521324504632503,-0.011541750038042664
1715194644913796900,2.085796875,-0.003187397864460945,0.0013571228305343538,0.00565663752220571
1715194644923872000,2.0958720703125,0.009088730862736701,0.01726135152755305,-0.0028130846593528982
1715194644933945900,2.10594580078125,-0.0007803367227315903,0.02222602473022416,-0.021144640967994927
1715194644944019700,2.116019775390625,0.005363572859764099,0.01725411806916818,-0.02378697217032313
1715194644954093800,2.12609375,0.004318447721004486,0.012262228066008537,-0.00796915224827826
1715194644964169000,2.1361689453125,0.00895896700322628,0.011482895990274846,-0.01651895392872393
1715194644974242800,2.146242919921875,0.008958382481336593,0.012012235360313206,-0.001705415678396821
1715194644984317000,2.15631689453125,0.003413607835769653,0.011287464749719946,0.007827624885737896
1715194644994391800,2.166391845703125,0.008345803540945053,-0.0036621301035862416,-0.0029902678571641444
1715194645004466000,2.1764658203125,-0.011251461854577064,0.005496076665632427,-0.017265169186145065
1715194645014540000,2.1865400390625,0.006855272722244263,0.017070541663188485,-0.0030430940229445695
1715194645024615000,2.196614990234375,-0.0024228432327508924,0.015576540245767682,-0.011540727124735712
1715194645034689000,2.20668896484375,0.007591770303249359,-0.0001378923670388758,0.003550824349373579
1715194645044763000,2.216762939453125,0.0017564882785081862,0.0068418835177086286,-0.004249912529438734
1715194645054838000,2.226838134765625,0.001457213070988655,0.00875717908712104,-0.0023029431801289317
1715194645064912000,2.236911865234375,0.021658289578557012,0.0059106214164290575,0.00041975978203117844
1715194645074986000,2.246986083984375,0.007895137163996696,0.01688261787565425,-0.015327406056597827
1715194645085060900,2.257060791015625,-0.012456161469221114,0.0015330547861754893,-0.006778042767569423
1715194645095135000,2.267135009765625,0.014336568388342857,0.005157200100086629,0.009740765030682086
1715194645105208800,2.277208740234375,0.016128712502121924,0.007256400869041681,-0.0014350012391805649
1715194645115283000,2.287282958984375,0.015379939961433409,0.006132894998136907,0.001560454249754548
1715194645125357800,2.29735791015625,0.018077508482336996,0.007971125009655952,0.0012183628138154744
1715194645135432000,2.307431884765625,0.009701309803128243,0.005883779075276106,-0.00885594502016902
1715194645145505800,2.317505859375,0.015673369950056075,0.004493384162802249,0.008545929222926497
1715194645155581000,2.327580810546875,-0.0007885200291872024,0.0062695452561601995,0.004209580519050359
1715194645165654800,2.33765478515625,0.004610124143958091,0.0016734131049364804,-0.0016474749460816383
1715194645175729000,2.34772900390625,0.002831424033641815,0.013592764283716677,-0.01997486653625965
1715194645185803800,2.3578037109375,-0.009882511588931083,0.014934031957993282,0.00481952911093831
1715194645195878000,2.3678779296875,-0.015402736315131187,0.003900514569878578,-0.0016778700843453405
1715194645205952000,2.377951904296875,0.03548983105421066,0.016250311321485786,-0.008146846902742982
1715194645216027100,2.388027099609375,0.03188566908240318,0.018272464798856525,-0.0021213760681450364
1715194645226101000,2.39810107421875,-0.009123802176117897,0.019297040339931845,-0.0030476240675896406
1715194645236174800,2.4081748046875,0.02483691961467266,-0.002680964445974678,-0.013705211682245134
1715194645246250000,2.41825,0.028277999979257583,0.006405793655384332,-0.009498407642170786
1715194645256323800,2.42832373046875,0.0008902268379926681,0.001130666264053434,-0.00928841815330088
1715194645266398000,2.43839794921875,-0.007501753932237625,0.0026068397638387975,0.01213094810284674
1715194645276472800,2.448472900390625,0.010890811848640441,0.017680197994131595,0.01710033401325345
1715194645286547000,2.458546875,0.004745733222365379,0.005458630732074379,0.01588058295994997
1715194645296620800,2.468620849609375,0.0017477204501628876,0.009713329034484922,-0.004108239036425948
1715194645306695000,2.47869482421875,0.008628127613663673,0.006324298517545685,-0.01065276530906558
1715194645316769800,2.488769775390625,0.002792261067032814,0.017406641749758273,-0.0019581483304500578
1715194645326844000,2.498843994140625,0.020596797826886174,0.0029535525759682058,0.0010994856745004653
1715194645336917800,2.508917724609375,0.013703531181812285,0.002176668185647577,-0.0013022417049854992
1715194645346993000,2.518992919921875,0.01430500420629978,0.007630385280586779,-0.01883344141617417
1715194645357066800,2.529066650390625,0.01011398225724697,0.0015062124450225382,0.001405555948987603
1715194645367141000,2.53914111328125,0.012209493231773375,0.011340345714427531,-0.006252338393032551
1715194645377215700,2.5492158203125,0.00024140754044055937,0.023315865793544797,0.01063946743607521
1715194645387290000,2.5592900390625,0.006377133816480636,0.006101422147639096,0.011204700103402137
1715194645397364000,2.569364013671875,0.011308160477876663,0.010112648816686123,-0.0051527796532958746
1715194645407439000,2.579439208984375,0.001724339574575424,0.02047250472693704,0.004091507097333669
1715194645417513000,2.589512939453125,-0.002032382610440254,0.014550065008550881,0.008505524147301912
1715194645427586800,2.5995869140625,0.007547346639633178,0.00820880622304976,-0.01354578333683312
1715194645437661000,2.609660888671875,-0.005762801310420036,0.0041512470610905435,0.0025420126330107447
1715194645447736000,2.619736083984375,0.01084989531636238,0.016588612498296424,-0.002716638547554612
1715194645457810000,2.629809814453125,0.01698211446106434,0.009893343510199338,-0.011367635580152273
1715194645467883800,2.6398837890625,0.012194295662641524,-0.0027134602097794412,0.0009013327538967132
1715194645477959000,2.649958984375,0.021322774013876913,0.00755330145638436,0.0004561462696641683
1715194645488032800,2.66003271484375,0.0035047932505607605,0.004526044323388487,-0.008515241823717951
1715194645498107000,2.67010693359375,0.026086627414822577,0.01785743599087,0.014540566527843475
1715194645508181800,2.680181640625,0.01695405741035938,0.004390270848199725,0.000965410966053605
1715194645518255900,2.690255859375,0.012167407655715941,-0.00595003097821027,-0.009682897363603114
1715194645528329700,2.700329833984375,0.0015454758763313293,0.013676241316087544,-0.007453677006810903
1715194645538404900,2.71040478515625,-0.001740121665596962,0.002170896031986922,-0.01664842552728951
1715194645548478700,2.720478759765625,-0.003534603866934776,-0.001991557409707457,-0.013976722100004554
1715194645558553000,2.730552978515625,0.002303016245365143,0.011398478242987765,-0.012809358821064234
1715194645568627700,2.740627685546875,0.001264320847392082,0.017309848578087983,0.0030893443174660204
1715194645578702000,2.7507021484375,0.0005167173504829406,0.009553279634565114,-0.0021391309205442666
1715194645588776000,2.76077587890625,0.011436170771718025,0.007361295148776844,0.009289002675190568
1715194645598850000,2.77085009765625,-0.0018786533534526824,0.007780379077373072,0.003116013128682971
1715194645608925000,2.780925048828125,0.004694879817962646,0.012867783610569313,-0.002722776027396321
1715194645618999000,2.7909990234375,0.00677343965768814,-0.0029863862664904445,0.002116992153972387
1715194645629073000,2.801072998046875,0.016503975555300712,0.011538270306168124,0.005201879492029548
1715194645639148000,2.81114794921875,0.007972878575325013,0.002462709452258423,-0.014984583968296647
1715194645649222000,2.821221923828125,0.011418635115027427,0.008890906735695899,-0.011899404369294642
1715194645659295700,2.831295654296875,-0.001449029764533043,0.011571807249588891,0.0027740678232163187
1715194645669371000,2.841370849609375,0.01127951890528202,0.010601473513245582,-0.00198584005497396
1715194645679444700,2.85144482421875,-0.0029237784922122954,0.006686875619087368,-0.013802169250696897
1715194645689518800,2.861518798828125,0.011439093381166457,0.006162221557321027,0.000014393851533532142
1715194645699594000,2.871593994140625,0.0002098433583974838,-0.0005579352768603712,0.015514526126533746
1715194645709667800,2.881667724609375,0.008742109382152558,-0.005177174309035763,0.0054437984891235825
1715194645719741700,2.89174169921875,0.01369067170023918,0.0038299152853898703,0.013396072667837142
1715194645729816800,2.90181689453125,-0.0023199673801660536,0.013026380838919431,0.004697802427411079
1715194645739890700,2.911890625,0.004263502663373947,0.0201446701452136,0.018630320059508085
1715194645749965000,2.921965087890625,0.004554594564437866,-0.0049122945614624765,0.0015486176814883945
1715194645760039000,2.932038818359375,0.004553425520658493,0.0005257043745368719,-0.0020407120473682878
1715194645770114000,2.942114013671875,0.00888882437646389,-0.013461420388473196,0.0030973084282130002
1715194645780188000,2.95218798828125,0.0036398178070783612,0.012628933353396132,0.025546675319224596
1715194645790262000,2.962261962890625,0.008880641070008277,0.013990714092738925,0.00950308381728828
1715194645800337000,2.9723369140625,0.008441665130853652,0.0018991846848279237,0.00651683454811573
1715194645810411000,2.982410888671875,0.003204348999261856,0.015428016886860131,-0.003363777344673872
1715194645820484900,2.99248486328125,0.00799216779768467,-0.005718706440366804,0.00007167699672281742
1715194645830560000,3.00256005859375,0.004704232168197631,0.00485260939663276,-0.01990033999532461
1715194645840633900,3.0126337890625,0.015629530808329583,-0.000910566373122856,0.004009089510887861
1715194645850708000,3.0227080078125,0.0038251112461090086,0.0004623385484330356,-0.004460997996851802
1715194645860782800,3.032782958984375,0.00024725275933742524,0.017752696974761784,0.013920315737649798
1715194645870857000,3.04285693359375,0.005936404311656951,0.0031154834057204425,-0.0001676116518676281
1715194645880930800,3.052930908203125,0.006528524985909462,0.003252754718251526,-0.0018956044882535933
1715194645891006000,3.063005859375,0.014001637345552443,0.007437237328663468,0.009595365210622549
1715194645901080000,3.073080078125,0.007118307572603225,0.008660057121887802,0.019620061749219892
1715194645911154000,3.08315380859375,0.007416413736343383,0.012816756676230579,0.002106470759958029
1715194645921228300,3.093228271484375,0.01070610293149948,0.0049373924701008945,0.009641323244199156
1715194645931303000,3.103302978515625,-0.0017155717462301254,0.01244427923518233,0.00040770401805639264
1715194645941377300,3.113377197265625,-0.0023217209458351136,0.012175892356270923,0.017093904272466896
1715194645951451100,3.123451171875,0.006494622716307639,0.01981399515243247,0.007380392574891447
1715194645961526300,3.1335263671875,-0.004424830704927444,0.015930851842463015,-0.008086056626215577
1715194645971600100,3.14360009765625,-0.009062427377700804,0.014105855771852657,0.008813640248402952
1715194645981674000,3.153674072265625,0.002461421677470207,0.020501493359403683,-0.0036480741787701843
1715194645991749000,3.1637490234375,0.004110942450165749,0.007121741638705134,-0.008797200570255518
1715194646001823200,3.1738232421875,0.0050122752040624614,0.01031427233600989,-0.0012255962722003458
1715194646011897000,3.18389697265625,0.0035182372540235518,0.022180541620682923,0.005920403024926781
1715194646021972200,3.19397216796875,-0.00022211831808090208,0.025422647080756724,0.014749971494823693
1715194646032046000,3.204046142578125,-0.007996259450912474,0.012881602073367684,0.02153013315424323
1715194646042120000,3.214119873046875,0.0012736731976270674,0.016092673074360936,0.01129807747527957
1715194646052194000,3.224194091796875,0.010852233403921127,0.007220343174971639,0.014724398662149906
1715194646062269000,3.23426904296875,0.009645780223608017,0.0075507624394260345,0.010656491636112332
1715194646072343000,3.244343017578125,0.020716040292382238,0.01384209940228611,0.0026139818906784056
1715194646082417000,3.2544169921875,0.004248305094242096,0.01421467730803415,0.0028616730414330956
1715194646092492000,3.264491943359375,0.014869652351737022,0.01546062224851921,0.015591829146444797
1715194646102566000,3.27456591796875,0.01277004972398281,-0.006219513835664838,-0.0017301117282360792
1715194646112640300,3.28464013671875,0.012165654090046881,0.011229816278349607,-0.002088935103267431
1715194646122715000,3.29471484375,0.019958499923348427,0.008981562427524476,0.006430909830331802
1715194646132789200,3.304789306640625,-0.0005336684852838516,0.011162267467472701,0.029347967298328875
1715194646142863000,3.314863037109375,-0.028059388792514798,0.02362309597865678,0.0036778847951442002
1715194646152938200,3.324938232421875,-0.008888239854574202,0.0012552242254838346,-0.019282646488398312
1715194646163012000,3.33501220703125,0.04618775067925453,0.00060143649186939,-0.008051935160905122
1715194646173086200,3.345086181640625,0.008770750954747199,0.009062884035427123,0.016282587889581916
1715194646183161000,3.3551611328125,-0.008293781092762947,0.016850734033202752,0.01679433680400252
1715194646193235200,3.365235107421875,0.018945523488521576,0.010029856770904734,-0.030423122249171135
1715194646203309000,3.37530908203125,0.0048895256072282785,-0.002286302572581917,-0.0006308452494442463
1715194646213383000,3.3853828125,-0.006481178712844848,0.012503261147113516,0.002946209519729018
1715194646223458000,3.3954580078125,0.002943652236461639,0.009170490862056612,0.009560513092949986
1715194646233532200,3.4055322265625,0.0011456629037857055,0.008496957248356193,0.008706453546881675
1715194646243606000,3.41560595703125,0.02029109287858009,0.00998314068550244,0.022141616116091608
1715194646253681200,3.42568115234375,0.009807108265161514,0.018741406618012116,0.001483589621260762
1715194646263755000,3.435755126953125,0.005458849927783012,0.004099306811299175,-0.007233604515343904
1715194646273828900,3.445828857421875,0.0012578911066055297,-0.004289002430811525,0.00471921054162085
1715194646283904000,3.455904052734375,-0.0005476970106363296,0.014050070464005693,-0.003253448837995529
1715194646293977900,3.465977783203125,0.0010877952367067335,-0.0034862255474086847,0.0019843056850135325
1715194646304052200,3.47605224609375,-0.010140285742282866,0.0109688455209136,-0.0072184800114482636
1715194646314126800,3.486126953125,0.004669160854816437,0.012799741609347983,-0.0005908055000007152
1715194646324201200,3.496201171875,0.0015150807380676268,0.013652896973118184,0.013632219511270522
1715194646334275000,3.506275146484375,0.0007493570625782013,0.007121339779905975,0.008504793494939803
1715194646344349200,3.51634912109375,0.01016542018353939,0.01133571520508267,0.0023925942249596118
1715194646354424000,3.526424072265625,0.015403320837020873,0.005485354342218488,0.00837049959078431
1715194646364498200,3.536498291015625,-0.0038882396101951595,0.01257312064608559,-0.0018063918348401784
1715194646374572000,3.546572021484375,-0.0023936171382665634,0.009413725033402442,0.002561228790134191
1715194646384647200,3.556647216796875,0.010181786796450614,-0.001657923274859786,0.004878419691324234
1715194646394721000,3.566720947265625,0.013918050715327262,0.010148651711829005,0.0009016250148415565
1715194646404795100,3.576795166015625,0.013774258330464362,0.011144695278163998,0.0036740123376250264
1715194646414870000,3.5868701171875,0.010941080731153487,0.006747958156559616,0.005619593447446823
1715194646424944000,3.596944091796875,0.0006178396373987198,0.0026129407110624015,0.0072537705205380915
1715194646435018000,3.60701806640625,0.01946808605790138,0.0005362075022421777,-0.005414426264166832
1715194646445093000,3.617093017578125,0.008244096732139586,0.0125937798416242,0.014494754624739288
1715194646455167000,3.6271669921875,0.012439210334420204,0.004743650863133371,0.0031892975606024263
1715194646465240800,3.63724072265625,0.007950082221627235,0.010826496174465865,-0.003237812877446413
1715194646475315200,3.647315185546875,0.009155950880050659,0.008683620660565793,-0.010558291958644985
1715194646485390000,3.65739013671875,0.01889993078112602,0.0005982581540942192,-0.01064582411162555
1715194646495464200,3.667464111328125,0.000796118813753128,0.008678935352293774,0.0062350219320505855
1715194646505538000,3.6775380859375,0.013672551521658896,0.013723322727670892,0.009706424369663
1715194646515613200,3.68761328125,0.0087228201597929,0.01673669746578671,0.00041143034510314464
1715194646525687000,3.69768701171875,-0.001900280663371086,0.011713745604082941,-0.000792392486706376
1715194646535761200,3.70776123046875,0.010227379503846168,0.009766584458528085,0.0018112141404300927
1715194646545836000,3.7178359375,-0.01057633907198906,0.004387695298623293,0.0011118336994200943
1715194646555910100,3.72791015625,0.005578676915168762,0.015722679851343853,-0.001768544042482972
1715194646565984000,3.73798388671875,0.01515548355579376,0.030200483341282232,0.004395823806151748
1715194646576059100,3.74805908203125,0.020555881294608114,0.0162051570055075,-0.006577844020351767
1715194646586133000,3.758133056640625,0.008134791138768195,0.02598945978381671,0.000018485504761338233
1715194646596207000,3.76820703125,-0.0018880057036876677,0.012172366958623752,-0.012735489867255092
1715194646606281000,3.778281005859375,0.0063601826816797255,0.018200723870052022,0.002122910438105464
1715194646616356000,3.788356201171875,0.006674655458331108,0.013027266754908486,0.01252944590114057
1715194646626430000,3.798429931640625,0.008920388558506966,0.009679079705011098,0.012494228457286953
1715194646636504000,3.808504150390625,0.02254500928521156,0.008416695086378604,0.0004521276816725731
1715194646646579000,3.818578857421875,0.0026338556349277493,0.012875190598890184,0.005398571107909083
1715194646656653000,3.828653076171875,0.008613514566421508,0.019062245203368366,0.009228796920552848
1715194646666727200,3.83872705078125,0.008015548673272132,0.007372501529380679,0.0020438538525253533
1715194646676802000,3.848802001953125,0.0030669863551855085,0.008469256390677764,0.005820742042735218
1715194646686876200,3.858876220703125,0.016677578556537627,-0.003007492986600846,-0.00442534216158092
1715194646696950000,3.868949951171875,0.016522680255770684,0.012945515888743101,-0.0001553366921842098
1715194646707025200,3.879025146484375,0.007082651737332343,0.006711498603690415,-0.001035188266634941
1715194646717099300,3.889099365234375,0.009784896433353424,0.00943652138710022,0.00168225399851799
1715194646727173000,3.899173095703125,0.010088263294100761,0.014201361168734728,0.011808218954503536
1715194646737247000,3.9092470703125,-0.0009790741652250289,0.01611612701518461,0.0014059212751686573
1715194646747322000,3.919322021484375,0.0012649053692817688,0.007411828892771154,0.009499357490241526
1715194646757396000,3.92939599609375,0.0038028994143009184,0.002989692468428984,-0.011400588001683355
1715194646767470000,3.939469970703125,0.02505553080141544,0.012135724742664023,0.0014116934288293122
1715194646777545000,3.949544921875,0.01681961737573147,0.001742532818391919,0.006859291310235858
1715194646787619000,3.959619140625,-0.011765256595611572,0.02143259106390178,0.01410882404707372
1715194646797693000,3.96969287109375,-0.004724690434336662,0.016486713893245904,-0.005298033342882991
1715194646807768000,3.97976806640625,0.00634556963443756,-0.001858743076585233,0.009443024193122982
1715194646817842000,3.989842041015625,-0.0009936872124671936,0.0043271516172681,0.014322759058699012
1715194646827916000,3.999916015625,0.004684942945837974,0.02383353299209848,0.012172814483195543
1715194646837991000,4.009990966796875,0.005875614035129547,0.009622152752848341,0.0025355828922241923
1715194646848065000,4.02006494140625,0.01065992570221424,0.0051633284467738115,0.014560951728746293
1715194646858139100,4.03013916015625,0.008411854514479636,0.0001232793197967112,-0.0018413170177489517
1715194646868213200,4.040213134765625,0.008566168293356895,0.010337662344751879,-0.006821589648351073
1715194646878288100,4.0502880859375,0.012155132696032524,0.009285148483980446,-0.003653554071485996
1715194646888362200,4.0603623046875,0.0075087681949138636,0.0044905528848990794,0.0030132834065705535
1715194646898436000,4.07043603515625,-0.014790741896629333,0.008786377782141789,0.013845643066242336
1715194646908511000,4.080510986328125,-0.00670505059659481,0.014270088156545534,0.0013392857797443866
1715194646918585000,4.090585205078125,0.01005903719961643,0.018620081793284043,0.024149302676692602
1715194646928659000,4.100658935546875,0.005569909086823463,-0.003277058042446151,0.006498349043354392
1715194646938734000,4.110734130859375,0.01111000755727291,0.013078202357701957,0.013322861301153897
1715194646948808000,4.120807861328125,0.005873860469460487,0.011245342641044407,0.010617620930448175
1715194646958882000,4.130882080078125,0.007968202400207519,0.015397110291942953,-0.0036054771460592746
1715194646968957000,4.14095703125,0.006909633257985114,0.012072733375895768,0.00865180075019598
1715194646979031000,4.151031005859375,0.013044775012135504,0.0029121793859638273,0.006557531884685159
1715194646989105000,4.16110498046875,0.013198504269123076,0.006259498786181211,-0.003852583774924278
1715194646999179000,4.171178955078125,-0.004605447968840598,0.00554389786273241,0.006109276660531759
1715194647009254000,4.18125390625,-0.003849661165475845,0.0033460772912018,0.011381810235977173
1715194647019328000,4.191327880859375,0.006319850671291351,0.004133382610836997,-0.0029031010303646326
1715194647029402000,4.201402099609375,0.0010825345396995544,-0.0046110191931016745,-0.0009527706801891326
1715194647039477000,4.21147705078125,0.011253215420246123,0.019741916296910494,-0.023027532105147838
1715194647049551000,4.221551025390625,0.01992693574130535,0.024870082098757847,0.007737097058072686
1715194647059625200,4.231625244140625,0.0110842885941267,0.012856266702711582,0.010900018068403005
1715194647069700000,4.2417001953125,0.009134323570132255,-0.0117323772393167,0.010954451669380067
1715194647079774200,4.251774169921875,0.0034410803645849226,-0.0013563921781722455,0.006405775389075279
1715194647089848000,4.26184814453125,-0.005531915163993835,0.01397920631803572,0.0005065612826496362
1715194647099923200,4.271923095703125,0.006141571494936942,0.01562850789502263,-0.0004174216944724321
1715194647109997000,4.2819970703125,-0.006267243701219559,-0.0002662314544431865,0.00407112189643085
1715194647120071000,4.29207080078125,0.019175825113058088,0.010206154052726924,0.010467325739562511
1715194647130145000,4.30214501953125,0.016191840866208076,0.02666345918839797,0.013064137299731373
1715194647140220000,4.312219970703125,-0.003558569264411926,0.004721585161797702,0.024426146856695412
1715194647150294000,4.3222939453125,-0.0019160627543926237,0.011090343875577672,-0.003065890376642346
1715194647160367900,4.332367919921875,0.01066343283355236,0.012979217228945343,-0.016386925046890974
1715194647170443000,4.342443115234375,0.0013894085317850112,0.01809745529182255,0.0012132482472807168
1715194647180516900,4.352516845703125,0.0043827451288700105,0.0190385172679089,0.0033167963977903127
1715194647190591000,4.362591064453125,0.009928688818216323,0.0033804636179935186,0.011416662353649736
1715194647200665900,4.372665771484375,0.0009527706801891326,0.001176423368230462,0.01663337408863008
1715194647210740000,4.382739990234375,-0.012950082466006279,0.012039205565629527,0.00930259280912578
1715194647220814000,4.39281396484375,0.01758767913877964,0.0022069354597479105,0.00793181591257453
1715194647230889000,4.402888916015625,0.006056815820932388,0.019099983397871254,0.0012758651547133922
1715194647240963000,4.412963134765625,-0.02014087075293064,0.007156548090605065,0.01399944538846612
1715194647251037200,4.423037109375,0.006949965268373489,-0.00023727935459464788,-0.005984554302319884
1715194647261111000,4.433111083984375,0.025811317604780195,0.006238401199225336,-0.002796718046441674
1715194647271186200,4.443186279296875,0.007114215919375419,-0.0018167579652275888,0.01356010412313044
1715194647281260000,4.453260009765625,-0.00739303286075592,0.018759134070947765,0.001916428080573678
1715194647291334000,4.463333984375,-0.0036392332851886747,0.003977141736354679,0.005951894141733646
1715194647301409000,4.473408935546875,0.0011567688196897506,0.004982382389297708,0.010195523060858249
1715194647311483100,4.483483154296875,0.019850947895646093,0.013345511524379253,0.01811974018886685
1715194647321557000,4.493556884765625,0.0033837972193956375,0.009502225300762801,0.01060213110037148
1715194647331632000,4.503632080078125,0.02030044522881508,0.003712481184490025,0.00854439485296607
1715194647341706000,4.5137060546875,0.006090133568644523,0.005270451216213405,-0.005407850392907858
1715194647351779800,4.52377978515625,-0.0028799393504858016,0.006957107395213097,0.009731120419502257
1715194647361854000,4.53385400390625,0.004903554132580757,0.003957350190496072,0.0019256343003362416
1715194647371928800,4.5439287109375,0.008785948523879051,0.009524327534716576,0.006537731205672025
1715194647382003000,4.5540029296875,0.007589432215690612,0.004983852827176451,-0.007073956974223256
1715194647392077000,4.5640771484375,0.01582826825082302,0.019373265647608787,0.007011632327735423
1715194647402152000,4.57415185546875,-0.00557224717438221,0.010946487558633089,0.0019688889201730487
1715194647412226000,4.58422607421875,0.0019137246668338775,0.010678840465238317,0.00445376453846693
1715194647422300200,4.594300048828125,-0.0000339022696018219,0.014464761345274746,0.0019344751939177512
1715194647432375000,4.604375,0.00924304464161396,0.0036859037048183377,0.01525397549420595
1715194647442449200,4.61444921875,0.021079028385877607,0.009020049540698528,-0.003510711534693837
1715194647452523000,4.62452294921875,0.014351765957474708,0.0020370222529396413,0.009883534502238035
1715194647462598100,4.63459814453125,0.009858546191453934,0.006974789182376116,0.013830080170929432
1715194647472672000,4.644672119140625,0.007758359041810035,0.001264320847392082,0.009843640883266926
1715194647482746000,4.65474609375,0.004615969362854957,0.0017062011296860872,0.008026508458703755
1715194647492820000,4.664820068359375,0.017038813084363936,0.012870331760682165,-0.0017575111918151378
1715194647502895000,4.67489501953125,0.01524140827357769,0.007386548321042209,0.0030495968289673326
1715194647512969000,4.684968994140625,0.014783143112063407,0.0057113633841276166,0.016625190782174466
1715194647523042800,4.695042724609375,-0.0051256724506616586,0.005977284311316907,0.006384001948684453
1715194647533118000,4.705117919921875,-0.001675239735841751,0.010300481272675096,0.003866612300276756
1715194647543192000,4.715192138671875,0.009253566035628318,-0.00024489640546962617,-0.007441109786182641
1715194647553266200,4.72526611328125,0.008666706058382987,0.004673672633152455,0.008867854653671384
1715194647563341000,4.735341064453125,0.0011935936987400055,0.00004932816759683191,0.009945639953017234
1715194647573415200,4.745415283203125,0.006439093136787414,0.013392802998516707,0.020150223103165624
1715194647583489000,4.755489013671875,-0.0004366378515958786,0.009086913364985957,0.01570420347973704
1715194647593563100,4.765563232421875,0.0006096563309431075,0.002814655561931431,0.0050930853553116315
1715194647603638000,4.775637939453125,-0.0017816227197647093,0.0031768856036011126,0.01088270160742104
1715194647613712100,4.785712158203125,0.012585340806841849,0.007660488157905637,-0.0009660685531795025
1715194647623786000,4.795785888671875,0.004051321217417717,0.017956256722845135,-0.013915785693004726
1715194647633861000,4.805861083984375,0.009731120419502257,0.010153784544672816,-0.0011309037260711192
1715194647643935000,4.81593505859375,0.002845452558994293,0.013840327570307998,-0.004977350021153688
1715194647654009000,4.826009033203125,-0.0068862523823976516,0.014728115856042131,0.006597717764601111
1715194647664084000,4.836083984375,-0.009885434198379516,0.0344391438243445,0.0008335282146930694
1715194647674158000,4.846157958984375,0.009863806888461113,0.01588193466681987,0.006385974710062146
1715194647684232000,4.85623193359375,-0.00001578209102153778,0.0034409525004215537,-0.007183262567594647
1715194647694307000,4.86630712890625,0.015694997259974478,0.02141374023295939,0.00016498130336403845
1715194647704381000,4.876380859375,0.012856558963656424,0.014455116734094917,-0.00018733926564455032
1715194647714455000,4.886455078125,-0.00703705902993679,0.011565286177257075,0.0030041502520442008
1715194647724529200,4.896529052734375,0.006887421426177025,0.018344178328197448,0.009616042672470211
1715194647734604000,4.90660400390625,0.020057868644595144,0.020825254554208368,0.0005893441952764987
1715194647744678100,4.91667822265625,-0.004931026661396026,0.002500036654807627,-0.00002798398546874523
1715194647754752000,4.926751953125,-0.002241056925058365,-0.005867120201420039,0.027273206850886342
1715194647764827100,4.9368271484375,-0.000012274959683418274,0.013570388055127114,0.005648527280986308
1715194647774901000,4.94690087890625,0.0064174658268690106,0.011351396831404417,-0.0010300006348639727
1715194647784975000,4.95697509765625,0.0032739071041345594,0.011148896529246121,0.015736206053197383
1715194647795050200,4.96705029296875,0.016733108136057852,0.003954180985875427,0.019441124985739588
1715194647805124000,4.9771240234375,0.01838379795253277,0.010715473548043518,0.006972980817779899
1715194647815198000,4.987197998046875,-0.008851999497413634,0.01592303386218846,0.0017836685463786125
1715194647825272000,4.99727197265625,0.004010989207029343,0.007895064098760484,-0.006221139537170529
1715194647835347000,5.007346923828125,0.02107201412320137,0.019865798404905943,0.031327669873461125
1715194647845421000,5.017421142578125,0.0071557169735431666,0.014635642666462808,0.008262436106428503
1715194647855495000,5.027494873046875,0.002072130098938942,0.004474807326495647,0.004908522568643093
1715194647865570000,5.037570068359375,0.008207271853089332,0.003722217127215117,0.003288958542793989
1715194647875644000,5.047643798828125,0.012094926941394805,0.008233630137052387,0.005992518413066863
1715194647885718000,5.057718017578125,0.02780979794561863,0.018724610746838153,0.008814736226946115
1715194647895793000,5.06779296875,-0.0004582651615142822,0.020650820435909552,-0.000312573080509901
1715194647905866800,5.07786669921875,0.00881692818403244,0.018008945891307665,0.010035364063084124
1715194647915941000,5.087941162109375,-0.009750409641861916,0.020873441077489403,0.02935030538588762
1715194647926015700,5.098015625,0.01194528933763504,0.02450613502403721,0.00989369057007134
1715194647936090000,5.108090087890625,0.010299275696277617,0.02578243857016787,0.0018248042743653058
1715194647946164000,5.1181640625,-0.0034603695869445798,0.012080222562607377,0.004430237532407045
1715194647956237800,5.12823779296875,0.008353402325510979,0.004480305485520511,0.004978153738752007
1715194647966313000,5.13831298828125,-0.000017535656690597534,0.006201411923393607,0.005765285528451204
1715194647976387000,5.148386962890625,0.01270341422855854,0.009910185047145933,-0.008619286720082163
1715194647986461000,5.1584609375,-0.003163432466983795,0.006553860356565564,0.0034390345379710194
1715194647996536000,5.1685361328125,-0.0003191489517688751,0.00416219771336764,0.011325915330275892
1715194648006610000,5.17860986328125,0.001025251394510269,0.00507248095870018,0.003281505888700485
1715194648016683800,5.188683837890625,-0.0013759645283222197,0.010727730241417884,0.012507599395513535
1715194648026759000,5.198759033203125,0.011646014130115508,0.0022130729395896196,0.02248626483529806
1715194648036832800,5.208832763671875,0.005665186154842377,0.010085833874996751,-0.007652195253595709
1715194648046907000,5.218906982421875,0.01958615947961807,0.008589512636326253,-0.007415536953508854
1715194648056981800,5.228981689453125,0.0089624741345644,0.011892664101254195,0.0055951896585524075
1715194648067055900,5.239055908203125,-0.009296236133575438,0.005523740990692749,0.00383234470449388
1715194648077129700,5.249129638671875,0.006735445734858512,-0.000702220852067694,0.011071063786372543
1715194648087204000,5.2592041015625,0.009575053074955939,0.002212406219309196,0.0021533055763691663
1715194648097278700,5.26927880859375,-0.004322539374232292,0.01725095799770206,0.004148790242522954
1715194648107353000,5.27935302734375,0.006751812347769737,0.010503502164641394,0.008177388171479106
1715194648117427000,5.289427001953125,0.009741641813516616,0.007927349800011143,-0.00806771725192666
1715194648127502000,5.299502197265625,0.009289806392788886,0.017958010288514195,0.014714754050970077
1715194648137576000,5.309575927734375,0.010336685097217559,0.018171990965912117,-0.0033680151283740994
1715194648147650000,5.319650146484375,0.01286766487956047,0.01132555000409484,0.002783200977742672
1715194648157725000,5.329724853515625,0.011069675546884535,0.017855097903311253,-0.011091887378692626
1715194648167799000,5.339799072265625,0.002841360905766487,0.01656642806595191,0.005934212354570627
1715194648177873000,5.349872802734375,0.007331658062338829,0.01259192581125535,0.002171498820185661
1715194648187946800,5.35994677734375,0.004191021949052811,0.012561530672991648,0.009933803384751081
1715194648198022000,5.37002197265625,0.011826046872138977,0.011873941134475171,0.010024769603833555
1715194648208095700,5.380095703125,0.0046282443225383755,0.01702550607821904,0.029957112172618507
1715194648218169900,5.390169921875,-0.015132102680206297,0.009551160742715,0.014672083953022956
1715194648228245000,5.400244873046875,0.004784311667084693,0.018786241273581982,0.004475318783149123
1715194648238318800,5.41031884765625,0.024084639942646025,0.004356733904778957,0.007494155147671699
1715194648248392700,5.420392822265625,0.01525485227704048,0.01893015238945372,0.0012204086404293776
1715194648258467800,5.4304677734375,0.0002811550289392471,0.015712788644991815,0.01825008857026696
1715194648268541700,5.440541748046875,0.01675122831463814,0.0006420516300480812,0.006891586144641041
1715194648278616000,5.450615966796875,0.021842998495697975,0.011773987891338765,0.018516922812908888
1715194648288690000,5.46068994140625,0.017055764219164847,-0.0028061251956038175,0.010577069724351167
1715194648298765000,5.47076513671875,0.0010334347009658812,0.005474851214513183,-0.0036477088525891303
1715194648308839000,5.4808388671875,0.0011813187390565872,0.019282189830671995,0.0035562311768531796
1715194648318913000,5.4909130859375,0.005228548303246498,0.01486487571191974,0.002132774244993925
1715194648328988000,5.50098779296875,-0.005552373430132865,-0.005440510553494095,0.01313844464495778
1715194648339062000,5.51106201171875,-0.0016670564293861387,-0.0047012730261310936,-0.003847103882208466
1715194648349136000,5.521135986328125,0.007765957826375961,0.013464918386656791,-0.0019683774635195733
1715194648359211000,5.5312109375,0.014341244563460349,0.002659264070820063,0.01808050415702164
1715194648369284900,5.541284912109375,0.013140636602044104,0.011264522265549748,0.0018291881885379553
1715194648379359000,5.55135888671875,-0.005265957704186439,0.022173801352642474,0.010226137394830585
1715194648389432800,5.561432861328125,-0.004521276816725731,0.012504512389283627,0.019097353049367664
1715194648399508000,5.571508056640625,-0.013498363998532294,0.016878142629936338,0.006181903505325317
1715194648409581800,5.581581787109375,0.00041442601978778834,-0.006622669542767107,0.029274025279283522
1715194648419655700,5.59165576171875,0.0019043723165988922,0.010514114890201017,0.002145999052748084
1715194648429730800,5.601730712890625,0.0017588263660669326,0.016479270372306926,0.0015160305861383675
1715194648439804700,5.6118046875,-0.0037929625421762466,0.0197461814800743,0.005769157985970378
1715194648449879000,5.621879150390625,-0.005742927566170692,0.013374628021009265,0.011379472148418427
1715194648459954000,5.631953857421875,-0.0060392801642417905,-0.0006658800302073359,-0.011409867286682128
1715194648470028000,5.642028076171875,-0.004233692046999931,0.014021565888728946,-0.012470482255518436
1715194648480102000,5.652101806640625,0.013725158491730689,0.010316756554041058,0.006645137102901935
1715194648490176000,5.662176025390625,0.005807809495925903,0.008062602685391903,0.007082870933040976
1715194648500251000,5.6722509765625,0.018378537255525587,0.005610368961375206,0.004958791451156139
1715194648510325000,5.682324951171875,0.006855857244133949,0.001130428802035749,-0.0008446341305971145
1715194648520398800,5.69239892578125,0.004755085572600365,0.022632541438192127,0.008194996893405913
1715194648530474000,5.702473876953125,0.007889876466989517,0.004418711491394787,0.0180174488581717
1715194648540547800,5.7125478515625,0.010275894820690154,0.017653529182914643,0.015259163125976919
1715194648550622000,5.7226220703125,-0.0007955342918634414,0.014922898642625658,0.023916005377471447
1715194648560696800,5.73269677734375,0.0129752169072628,-0.002824720298219472,0.012949644074589014
1715194648570771000,5.74277099609375,0.004597849184274673,0.010541596552170813,-0.006692337245494127
1715194648580844800,5.7528447265625,0.0040068975538015365,0.013099975798092781,0.006669029435142874
1715194648590920000,5.762919921875,-0.005415595307946205,0.010253664722573011,0.012119038469344376
1715194648600993800,5.772993896484375,-0.007198971593379974,0.016210381169896572,0.01586567765176296
1715194648611068000,5.78306787109375,0.007162146714329719,0.006191566382814199,0.0144043729275465
1715194648621142000,5.79314208984375,0.01104337206184864,0.002720657135546207,0.011096855814754962
1715194648631217000,5.803216796875,0.015969722548127174,0.012921258230321109,0.005116758491843939
1715194648641291000,5.813291015625,0.005942249530553817,-0.010452867955947295,-0.013702654398977755
1715194648651364900,5.82336474609375,-0.0024310265392065047,0.006778618156304582,-0.0022504092752933503
1715194648661440000,5.83343994140625,-0.001992635121941566,0.01010764384800568,0.0028425299495458602
1715194648671513900,5.843513916015625,0.006235094997286797,0.0009021912704221904,-0.0007066869646310806
1715194648681588000,5.853587890625,0.00563712910413742,0.01636038409983739,0.0074067691251635545
1715194648691662800,5.863662841796875,0.008635726398229598,0.004640647146385163,0.00016994973942637443
1715194648701737000,5.873737060546875,0.008486088794469833,0.012519408564316109,0.005421951983496547
1715194648711810800,5.883810791015625,0.008331775015592575,0.014631916339416056,0.023138445133715865
1715194648721885000,5.893885009765625,-0.003186228820681572,0.016307630999293176,0.020359043548256156
1715194648731959800,5.903959716796875,0.008642740660905838,0.006429302395135164,0.008880494939535856
1715194648742034000,5.914033935546875,0.012383096233010291,0.004449928613565862,0.00815203453451395
1715194648752107800,5.924107666015625,0.009852700972557067,0.0188484928548336,0.009028525108098984
1715194648762183000,5.934182861328125,0.010755202770233153,0.031222127139754592,0.005082417830824851
1715194648772256800,5.9442568359375,0.002378419569134712,0.01578101330930367,0.013873188660293816
1715194648782331000,5.954330810546875,-0.0001578209102153778,-0.009702460580598562,-0.0024055267717689273
1715194648792405800,5.96440576171875,0.0019271686702966688,0.009627221653610468,0.0034083471387624737
1715194648802479900,5.97447998046875,0.005213350734114647,0.025705464343819765,0.006926949718967079
1715194648812554000,5.984553955078125,0.009990063616633415,0.01100588046251796,0.006450418248400092
1715194648822628000,5.994628173828125,0.010579261681437491,0.0031249818864278493,0.006715279729664326
1715194648832703000,6.004702880859375,0.020303952360153196,0.007338069536816328,0.011525018098950386
1715194648842777000,6.014777099609375,0.009670330142974854,0.020992007689550517,0.007437456524372101
1715194648852851000,6.024850830078125,0.006226327168941497,0.0168235446321778,0.005074965176731348
1715194648862926000,6.034926025390625,0.005623685100674629,0.010087331712339073,0.012907558498531578
1715194648873000000,6.045,0.008760229560732842,0.016768033318966626,0.009727321027219295
1715194648883073800,6.05507373046875,0.00023497779965400695,0.018786405670363455,0.01013071419633925
1715194648893149000,6.06514892578125,0.018490180936455724,0.005775021471176296,0.011910510285198688
1715194648903222500,6.075222412109375,0.0063590136379003525,0.011826622260874137,-0.011591945855319499
1715194648913296400,6.08529638671875,0.006216390296816826,-0.0023373203737661243,0.013162848433852195
1715194648923370500,6.09537060546875,0.006365443378686905,0.011701233182381837,0.0021023060414940118
1715194648933445400,6.1054453125,0.009067688074707984,0.02120217984151095,0.006633885056525468
1715194648943519500,6.11551953125,0.0002402384966611862,0.007275617026165127,0.020257921261340378
1715194648953593600,6.125593505859375,0.005478139150142669,0.01448460769006051,-0.0014499065473675726
1715194648963668500,6.13566845703125,0.013109656941890716,0.008511597695061936,0.014710077875852583
1715194648973742600,6.14574267578125,0.005934066224098205,0.018366919882968066,0.001442307762801647
1715194648983816700,6.155816650390625,0.009372808501124381,0.006094535749126225,0.01914016927778721
1715194648993891600,6.1658916015625,0.009224924463033676,0.010418938286881894,0.017327274636924267
1715194649003965700,6.175965576171875,0.005489245066046714,0.004278207042161375,0.0013935001850128173
1715194649014039600,6.18603955078125,0.012529811227321623,0.011995740883238614,0.014464432551711797
1715194649024113400,6.196113525390625,0.014781974068284034,0.011002035404462367,0.004351619338244199
1715194649034188500,6.2061884765625,0.001917231798171997,0.0020917846474796534,-0.005550839060172438
1715194649044262700,6.2162626953125,0.011194763231277466,0.004117901913914829,0.00495711095072329
1715194649054336500,6.22633642578125,0.0022118308305740355,0.00579314164975658,0.014746610493957996
1715194649064411600,6.23641162109375,-0.005557634127140045,0.01419617353696376,0.011906710892915725
1715194649074485500,6.246485595703125,-0.008691255977749824,0.020030807107733563,0.008628492939844728
1715194649084559400,6.256559326171875,0.014201543831825255,0.014892850564233957,-0.013942746765166521
1715194649094634500,6.266634521484375,0.0163040690690279,0.006881220014253631,0.01004369350001216
1715194649104708400,6.276708251953125,0.008377367722988128,0.022208041548961773,-0.009477072593197225
1715194649114782500,6.286782470703125,0.01031447326540947,0.007793311624182388,0.016828312138840555
1715194649124856600,6.296856689453125,-0.009279869520664214,-0.00898854015758261,0.019729586538299915
1715194649134931500,6.306931396484375,0.01406710379719734,0.01491348236030899,0.005926102113351226
1715194649145005600,6.317005615234375,0.002241056925058365,0.01862470316947438,-0.000889861511811614
1715194649155079700,6.32707958984375,0.01586100147664547,0.008506647525308653,0.010587152726948261
1715194649165154600,6.337154541015625,0.013018471527099609,0.01620011550420895,0.022858020757138726
1715194649175228700,6.347228759765625,-0.00418926838338375,0.004110567990830168,0.012671996176987886
1715194649185302500,6.357302490234375,0.004489128112792969,0.018298275093548,-0.00033734219558537
1715194649195377700,6.367377685546875,0.017664836028218268,0.01522099567321129,0.010776318623498081
1715194649205451500,6.377451416015625,0.013179215046763419,0.009385183925507589,0.022099384409561752
1715194649215525600,6.387525634765625,0.0038870705664157865,0.011849135486781596,0.022587021796032784
1715194649225599500,6.397599609375,0.007628010660409927,-0.002552104768762365,0.01077178857885301
1715194649235674600,6.407674560546875,0.010616086560487747,0.004280134137766435,-0.0009765168819576501
1715194649245748500,6.41774853515625,0.0016524433821439742,0.0031104236381128427,0.01245484629496932
1715194649255822300,6.427822265625,0.009593173253536223,0.0030314949166961014,0.010530746364593505
1715194649265897500,6.4378974609375,-0.005659925457835197,0.015856535364082082,0.02866298070885241
1715194649275971300,6.447971435546875,-0.00968611223399639,0.02422821313180029,0.00033610008656978605
1715194649286045400,6.45804541015625,0.018623451927304267,0.012000143063720315,0.007146803014725446
1715194649296120600,6.46812060546875,0.02385258475244045,0.011483425713237374,0.01934709002673626
1715194649306194400,6.4781943359375,-0.006382394513487815,0.009329946606932208,0.004507321356609463
1715194649316268500,6.4882685546875,0.007981646403670311,0.011735683441255241,-0.008521890760213136
1715194649326342700,6.4983427734375,0.012779986596107483,0.016579817270487546,0.001659969101473689
1715194649336417500,6.50841748046875,0.013086276066303252,0.014587638806272297,0.002466390113532543
1715194649346491600,6.51849169921875,-0.003219546568393707,-0.0028284100926481187,0.003757233641669154
1715194649356565500,6.5285654296875,0.003512392035126686,0.009420483567751943,0.02231675348728895
1715194649366640600,6.538640625,-0.005318564674258232,0.014162106870580464,-0.0041736324228346345
1715194649376714500,6.548714599609375,0.01383271051943302,0.012244053088501095,0.004532309667393565
1715194649386788600,6.55878857421875,0.012772387811541556,0.01329337947834283,0.014737988796085118
1715194649396863500,6.568863525390625,0.01860240913927555,0.004579811204085126,0.005377382189407944
1715194649406937600,6.5789375,0.007829086190462112,0.018135613611433656,-0.011537585319578648
1715194649417011500,6.589011474609375,0.0004991816937923431,0.011751200670795514,-0.0009246405642479657
1715194649427085600,6.59908544921875,0.002746083837747574,0.013060739766247569,0.0044105099186301224
1715194649437160400,6.609160400390625,0.012922025415301323,0.019124715980328617,0.01383789815120399
1715194649447234600,6.619234619140625,-0.0030851065337657926,0.01928242729268968,0.0010373071584850548
1715194649457308400,6.629308349609375,0.0026057985842227933,0.005995842881314456,0.011446838296204805
1715194649467383600,6.639383544921875,-0.0026309330254793164,0.011938348140195012,0.0027684418000280854
1715194649477457400,6.64945751953125,-0.012512275570631027,0.021514022269658744,-0.0008824088577181101
1715194649487531500,6.659531494140625,0.011570610806345938,0.02067243861267343,0.0013295681033283471
1715194649497606400,6.6696064453125,0.006026420682668686,0.016696347189089283,-0.002913110967725515
1715194649507680500,6.679680419921875,-0.0028027824610471724,0.0014700725525617598,0.0020442191787064076
1715194649517754600,6.689754638671875,-0.003691255733370781,0.011163966234214603,0.006412716586515307
1715194649527829800,6.699829833984375,0.011721417453885078,0.01462587019111961,-0.014118103332072496
1715194649537903600,6.709903564453125,0.012933131331205367,0.014081442849803715,-0.013407763105630873
1715194649547977500,6.7199775390625,0.011136895564198493,-0.0020510325119830666,0.010541486954316497
1715194649558051600,6.730051513671875,0.00978898808658123,0.006471141376020386,0.006672536566480994
1715194649568126500,6.74012646484375,0.00530512067079544,0.012561421075137332,-0.011649521261453627
1715194649578200600,6.75020068359375,0.012794599643349646,0.0025870390848256645,0.00603833031617105
1715194649588274400,6.7602744140625,0.018040099081397056,0.0041559506356716154,0.021632132223993537
1715194649598349600,6.770349609375,0.016694529691338538,0.02283931605666876,0.024760201116651295
1715194649608423400,6.78042333984375,0.0060725979119539255,0.01618511886447668,0.006934329307824373
1715194649618497500,6.79049755859375,0.01266249769628048,0.009128624481707811,0.002040273655951023
1715194649628571400,6.8005712890625,0.005480477237701416,0.007524696416407823,-0.00008928571864962577
1715194649638646500,6.810646484375,0.015064298141002654,0.013309152436209842,0.00446793919429183
1715194649648720400,6.820720458984375,0.01806172639131546,0.0050535022635944185,0.01754683567173779
1715194649658794800,6.830794677734375,0.007285480833053588,-0.005146870502317324,0.007990048905834555
1715194649668869400,6.840869384765625,-0.003042436435818672,0.003447199578117579,0.01267594169974327
1715194649678943700,6.85094384765625,0.00907704042494297,0.00269623508034274,-0.007206570377945899
1715194649689017600,6.861017578125,0.019104513442516326,0.017961928411806,0.002200213458016515
1715194649699092700,6.8710927734375,0.015659925946593285,0.006952988342521712,0.009283595847710966
1715194649709166600,6.88116650390625,0.008629296657443046,0.010801069472264498,0.008056903596967459
1715194649719240400,6.891240478515625,0.02180091291964054,0.017023432852141557,-0.0047004327759146685
1715194649729315600,6.901315673828125,0.016119944673776625,0.008909775832947343,-0.003743497377261519
1715194649739389400,6.911389404296875,-0.008126023310422897,0.009306209538318216,0.006954933704435825
1715194649749463600,6.921463623046875,0.006089549046754837,0.004645816511847078,0.00740720751658082
1715194649759537400,6.931537353515625,0.0156722009062767,-0.0022105430557858197,0.0076472268175333735
1715194649769612500,6.941612548828125,-0.005724807387590408,0.011638433611858635,0.029460049370676276
1715194649779686400,6.951686279296875,0.004164133942127227,0.009482753415312618,0.015228694922477005
1715194649789760500,6.961760498046875,-0.006012392157316208,0.01700241746357642,0.007459887551888823
1715194649799835400,6.97183544921875,0.00909399155974388,0.017724064535321667,0.01160180966220796
1715194649809909500,6.981909423828125,0.008644494226574897,0.009721210946841165,0.0002481295421719551
1715194649819983400,6.9919833984375,0.011343816313147544,0.014732088778261095,0.003443345386907458
1715194649830057700,7.0020576171875,0.0014683189868927,-0.005537824314972385,0.021534444003179668
1715194649840132400,7.01213232421875,0.01013794765472412,0.009481967964023352,0.012375570513680576
1715194649850206700,7.022206787109375,0.021200608938932417,0.016263444797694683,0.0012685586310923098
1715194649860280600,7.032280517578125,0.008185060021281242,0.01852590983696282,0.019180866614356636
1715194649870355700,7.042355712890625,-0.004237199178338051,0.014324183830805122,0.005595481919497251
1715194649880429600,7.0524296875,0.017156886506080625,0.020366085210395974,0.01794219166487455
1715194649890503700,7.062503662109375,0.008775427129864692,0.020772656717291102,0.0015124503895640373
1715194649900579000,7.0725791015625,0.0017447978407144546,0.017373260069964452,0.011369681406766176
1715194649910653200,7.082653076171875,0.008175707671046256,0.0067877604439854616,0.007518924262747168
1715194649920727000,7.09272705078125,0.0072796356141567225,0.0014883662610780447,0.022449659151956437
1715194649930801000,7.10280078125,0.007138181316852569,0.015885734059102832,0.018585896395891904
1715194649940876000,7.1128759765625,0.0035410336077213284,0.01043504917146638,0.024193287948891518
1715194649950950100,7.1229501953125,0.022390695506334303,0.011263846412114798,0.01376512517593801
1715194649961024000,7.13302392578125,0.006833060890436172,0.015196993743116035,0.014599895499646662
1715194649971099100,7.14309912109375,0.019694880551099775,0.008287004292104393,0.00676277213320136
1715194649981173000,7.153173095703125,0.006373626685142517,0.006356072762142866,-0.0008011603150516748
1715194649991246800,7.163246826171875,0.008310732227563858,0.0052727984369266775,0.02324358600862324
1715194650001322000,7.173322021484375,0.012643208473920822,0.015881825068965554,0.015257117299363016
1715194650011395800,7.183395751953125,0.005604980400204658,0.015105744396243244,-0.002176174995303154
1715194650021470000,7.193469970703125,0.006208206990361213,0.014474479021690785,0.009909253465384245
1715194650031544000,7.2035439453125,0.005901332998275757,0.008361731762439012,0.000011178981140255927
1715194650041619000,7.213618896484375,-0.0002437456279993057,0.016634744061809034,-0.00028897300921380516
1715194650051693000,7.223693115234375,0.00021510405540466307,0.029255064850486814,0.0021338702235370872
1715194650061767200,7.23376708984375,-0.006956979531049728,0.005776592373754829,-0.006219897428154945
1715194650071842000,7.243842041015625,-0.00739127929508686,-0.0007989866242744028,0.005270268553122878
1715194650081916200,7.253916259765625,0.008326514318585396,0.004924286393355578,0.018227365281805394
1715194650091990000,7.263989990234375,-0.006786299139261246,0.014991424701036885,0.004769333293661475
1715194650102065200,7.274065185546875,0.01086860001683235,0.00328930560266599,0.005695069836452603
1715194650112139000,7.284138916015625,0.009534721064567566,0.010033683562651276,-0.0031586101613938805
1715194650122213000,7.294213134765625,0.003996376159787178,0.012404650477692484,-0.0010355535928159951
1715194650132287000,7.304286865234375,0.011183072793483734,0.011286268306476995,0.012690920073166488
1715194650142362000,7.314362060546875,0.004599602749943733,0.0005578074126970022,0.002801248091086745
1715194650152436000,7.32443603515625,0.010575170028209686,0.008452350921649485,0.0006920008521527052
1715194650162509800,7.334509765625,0.004732289218902588,-0.00028436989933252336,0.001975099465250969
1715194650172585000,7.3445849609375,0.01265372986793518,0.014729458429757505,0.00014532675482332706
1715194650182659000,7.3546591796875,0.005462357059121132,0.020696358344377948,-0.016035335130244494
1715194650192733000,7.36473291015625,0.000969137293100357,0.0010256532533094286,0.015749796187132598
1715194650202807000,7.37480712890625,-0.007727963903546333,0.02266664463719353,0.015386588897928594
1715194650212882000,7.3848818359375,-0.011316928306221961,0.012048165190219878,0.008917465949058533
1715194650222956000,7.3949560546875,0.012924363502860069,-0.0007972878575325012,0.0021837737798690794
1715194650233030100,7.405030029296875,0.012927870634198188,0.004122377159632742,0.0019843056850135325
1715194650243105000,7.41510498046875,-0.00623275690972805,0.01243566667046398,0.013762275631725787
1715194650253179100,7.42517919921875,0.00888707081079483,0.010116366010578349,-0.0024908669676631688
1715194650263253000,7.4352529296875,0.028938509714603423,0.008724281464517116,0.0013813713558018207
1715194650273328000,7.445328125,0.01203939736187458,0.009893325243890284,0.008151669208332896
1715194650283402000,7.455402099609375,-0.006514496460556984,0.01922360977753997,0.013967296684533358
1715194650293476000,7.46547607421875,0.009932780471444129,0.0062735090452246366,0.01532755218707025
1715194650303550000,7.475550048828125,0.018744447958469388,0.02380390503881499,0.02451645548865199
1715194650313625000,7.485625,0.01394727680981159,0.013277688718866556,0.010257043989747762
1715194650323699000,7.495698974609375,-0.0032610476225614546,0.010276725937752052,0.009385010395571589
1715194650333773000,7.50577294921875,0.015131518158316612,0.009435087481839582,-0.005109232772514224
1715194650343848000,7.515847900390625,0.00779693748652935,0.00666876457366161,-0.008062018163502216
1715194650353922000,7.525922119140625,0.01439092892408371,0.00045718744928017254,0.017272329579293727
1715194650363996000,7.535995849609375,0.008407178339362144,0.021214491333812473,0.010367372496426105
1715194650374070000,7.546070068359375,-0.002360299390554428,-0.003914680092548951,0.01569258610717952
1715194650384145000,7.556144775390625,0.00931143370270729,0.013357375492108985,0.011963774842396378
1715194650394219000,7.566218994140625,-0.005811316627264022,0.02000780069148168,0.0007283142745494843
1715194650404293000,7.576293212890625,0.004359364253282547,0.01513933613859117,0.001082753735408187
1715194650414368000,7.586367919921875,0.023068740898370743,0.01712647310150787,0.01793934212066233
1715194650424442000,7.596442138671875,0.01918108581006527,0.011346738922595977,0.01240077802017331
1715194650434516000,7.606515869140625,0.02007072812616825,0.0008572104843799025,0.00501483248732984
1715194650444591000,7.616591064453125,0.010941665253043175,0.0037987346958369013,0.013991262082010507
1715194650454665000,7.6266650390625,0.0060118076354265205,-0.0024290537778288127,0.0019208119947463273
1715194650464739000,7.636739013671875,0.001973345899581909,0.01477422002009116,0.010431304578110576
1715194650474813000,7.64681298828125,0.0010796119302511214,0.02164672700492665,-0.007885200291872023
1715194650484888000,7.65688818359375,0.012760112851858138,0.0027721407276112583,0.00457264167778194
1715194650494962000,7.6669619140625,0.007824994537234306,0.0095690434592776,0.019207389295101164
1715194650505036000,7.6770361328125,0.01007306572496891,0.005278059133933857,0.014538228440284727
1715194650515111000,7.68711083984375,0.003799392282962799,-0.0015237115690950303,0.009156681532412766
1715194650525185000,7.69718505859375,0.0015548282265663146,0.00886007320601493,0.011990516718849539
1715194650535259100,7.707259033203125,0.013079261803627014,0.018635599022824315,0.0028439912542700765
1715194650545333200,7.717333251953125,0.024445874470472334,0.004637121748737991,-0.0008096358824521303
1715194650555408100,7.727408203125,0.016364859345555306,0.01537723654769361,0.015667159404978155
1715194650565482200,7.737482177734375,-0.0018850830942392348,0.006631693099439144,0.015594094168767333
1715194650575556000,7.74755615234375,0.006654197192192077,0.005119260976184159,0.017580372615158556
1715194650585631200,7.75763134765625,0.006949965268373489,0.01905802568597719,0.005374459579959512
1715194650595705000,7.767705078125,0.0009627075523138045,0.03288096373006701,0.011248758440837264
1715194650605779000,7.777779052734375,0.00395662867128849,0.031244448569416997,0.015247034296765922
1715194650615854000,7.78785400390625,0.008141220879554748,0.021582383931288494,0.012772095550596713
1715194650625928000,7.797927978515625,0.01664601437449455,0.011718549643363803,0.02325768759921193
1715194650636002000,7.808001953125,0.009751578685641289,0.014804606025200336,-0.003836217162013054
1715194650646076000,7.818075927734375,0.005706102687120437,-0.0007868303955998272,0.0182402247633785
1715194650656151000,7.828151123046875,0.012882862448692321,0.007954228673782199,0.01202156944423914
1715194650666225000,7.838224853515625,0.0025508535265922547,0.0008424147740472108,0.021688757782056926
1715194650676299000,7.848299072265625,0.0053916299104690545,0.005823354124929756,0.007218406946212053
1715194650686374000,7.858373779296875,0.0034422494083642956,0.013586115347221492,-0.001998480340838432
1715194650696448000,7.868447998046875,0.0004588496834039688,-0.0007897256055846809,0.014780366633087396
1715194650706522000,7.878522216796875,0.008249357429146766,0.020498607282573356,0.008837897906824946
1715194650716596200,7.88859619140625,0.009154197314381598,0.010201541809691116,0.009058993311598897
1715194650726671000,7.898671142578125,0.02351706918776035,0.007948036395013331,0.0066736325450241565
1715194650736745200,7.9087451171875,0.01842939065992832,0.021874873204994944,-0.0020282178919762374
1715194650746819000,7.918819091796875,0.02277472638785839,0.011871603046916425,0.007462152574211359
1715194650756894200,7.928894287109375,0.012599369332194327,0.01737582648638636,0.003750292444229126
1715194650766968000,7.938968017578125,-0.01223638123869896,0.029063670464232562,0.01924932874068618
1715194650777042200,7.949042236328125,0.015150807380676269,0.022099347876943648,0.0021366467025130988
1715194650787117000,7.959116943359375,0.013650339689850806,0.0055748135908041145,0.02058919904232025
1715194650797191200,7.969191162109375,0.0022755437165498734,0.0023627653422765432,0.011623802298307418
1715194650807265000,7.97926513671875,-0.0014700725525617598,0.007269936204049736,0.022471432592347265
1715194650817339000,7.9893388671875,0.0233668470621109,0.0008361950958147644,0.0013902853146195411
1715194650827414000,7.9994140625,0.00825403360426426,0.017072276962548493,0.012440087117254733
1715194650837487900,8.00948779296875,0.006154430976510048,0.015761267429217695,0.010876052670925855
1715194650847562000,8.01956201171875,0.01108604215979576,0.005863092480273917,0.0045600013919174665
1715194650857636900,8.029636962890624,0.001202361527085304,0.015378222928382455,0.014374781506881117
1715194650867711000,8.0397109375,0.0013566753059625625,0.021664244395308195,0.016128858632594344
1715194650877785000,8.04978515625,0.010787935996055603,0.00912108962922357,0.014424027476087212
1715194650887859200,8.059859130859374,0.010793196693062782,0.007829277986707165,0.0028244828362017868
1715194650897934000,8.06993408203125,0.004207973083853721,0.01018344903057441,-0.0012010463528335095
1715194650908008200,8.08000830078125,0.002112462109327316,0.023327410100866107,0.012282120076566934
1715194650918082300,8.090082275390625,0.0012076222240924835,0.024308420494850724,0.031518224009498955
1715194650928157200,8.1001572265625,-0.011512158617377281,0.0194050855579786,0.013757891717553138
1715194650938231300,8.110231201171874,0.005541852036118507,0.003652111033070832,0.007991144884377717
1715194650948305200,8.12030517578125,0.02110942352414131,0.01895500370291993,0.005391483779996633
1715194650958379300,8.130379150390626,-0.0010240823507308959,0.0090563264304772,-0.0022199410717934367
1715194650968454100,8.1404541015625,0.015589783319830894,0.020867796787992117,0.012112316467612981
1715194650978528300,8.1505283203125,0.006762333741784096,0.005235763495322316,-0.004354907273873687
1715194650988602000,8.16060205078125,0.006754734957218169,0.003082439652644098,0.011466931236162782
1715194650998677200,8.17067724609375,0.006608604484796524,0.008310668295482174,0.005739128173887729
1715194651008751000,8.180751220703126,0.003605331015586853,0.005546893537417054,0.025043255841732025
1715194651018825000,8.190824951171875,0.015130933636426924,0.010277456590114161,-0.00030154022984206676
1715194651028900000,8.200900146484376,0.003153495594859123,0.012818163182027636,-0.005476970106363296
1715194651038974000,8.210973876953124,0.006138064363598823,0.0024571564943064003,0.0155736359026283
1715194651049048000,8.221048095703125,0.00732639736533165,0.00674794902340509,0.008197261915728449
1715194651059122200,8.2311220703125,0.013915128105878829,0.009704360276740044,0.00681070292815566
1715194651069197000,8.241197021484375,0.022000234884023664,0.009909180400148033,0.01751132596693933
1715194651079271200,8.251271240234376,0.01136661266684532,0.006047637000633404,0.018987243738397955
1715194651089345300,8.26134521484375,-0.02394552373290062,0.024743304780777544,0.00950491044819355
1715194651099420200,8.271420166015625,-0.0061275429695844645,0.006340619464684278,0.001290332071483135
1715194651109494300,8.281494384765624,0.027528058394789695,0.01153845296925865,0.002803293917700648
1715194651119568100,8.291568115234375,-0.003305471286177635,0.015224164877831936,0.00588562397249043
1715194651129642200,8.301642333984375,0.010323241093754768,0.005710760595928877,-0.0027881694138050077
1715194651139717000,8.311717041015624,0.03038344782590866,0.020159493255009875,-0.0026174159567803144
1715194651149791200,8.321791259765625,0.005693243205547332,0.027994068471342323,0.015029446023330091
1715194651159865000,8.331864990234376,0.004793079495429993,0.012225476252194493,0.011755319723486899
1715194651169940200,8.341940185546875,-0.0014829320341348648,0.007262739278282969,0.0013121785771101713
1715194651180014000,8.35201416015625,0.00883037218749523,0.019189479179074986,0.012684344201907515
1715194651190088200,8.362088134765624,0.012412906849384307,0.017988140565296636,0.025226211193203923
1715194651200163000,8.3721630859375,0.007614566656947135,0.01135762564279139,0.010848507076874375
1715194651210237200,8.3822373046875,-0.004660977548360824,0.0025200017306022345,0.012122618665918707
1715194651220311000,8.39231103515625,0.008366261807084083,0.0017542780551128088,-0.004011939055100083
1715194651230385200,8.40238525390625,0.006121113228797912,0.0033848201327025887,0.014254150801897049
1715194651240460000,8.4124599609375,0.02018704798221588,0.013060173510666935,0.012920271849632263
1715194651250534100,8.4225341796875,0.008952537262439728,0.008461575407721102,0.010077011247724295
1715194651260608300,8.432608154296876,0.006555412992835044,0.011624989608395845,0.00505209575779736
1715194651270683100,8.44268310546875,0.01582826825082302,0.005323989768046885,0.01992773945890367
1715194651280757200,8.45275732421875,0.008636895442008971,0.009721192680532112,0.008375102700665592
1715194651290831000,8.4628310546875,0.01148293252289295,0.004477583805471658,-0.009001125644519924
1715194651300905200,8.4729052734375,-0.0012380173623561857,0.01839806393990293,-0.005388634235784411
1715194651310980000,8.48297998046875,0.018058803781867028,0.017705588163714855,0.006060761343687772
1715194651321054200,8.49305419921875,0.008624035960435867,0.011711334451287985,0.00048559155985713
1715194651331128000,8.503128173828125,0.02014554692804813,0.01167944147568196,0.008129092050343751
1715194651341203200,8.513203125,0.008325929796695709,-0.001992160197906196,-0.004907061263918876
1715194651351277000,8.523277099609375,0.006976853275299072,0.004759542552009224,-0.0005201514165848494
1715194651361351200,8.53335107421875,0.0029348844081163407,0.007223667643219232,0.007445785961300134
1715194651371425000,8.543425048828125,0.0017249240964651107,0.0062515164091251785,0.0047938101477921005
1715194651381500200,8.553500244140626,0.00845920078754425,0.0016817973407916723,0.010480185221135616
1715194651391574300,8.56357421875,0.0011345569878816605,0.011079621552163734,0.015624708502739667
1715194651401648000,8.573648193359375,0.017446224841475486,0.011179118137573822,0.014417963061481713
1715194651411723300,8.58372314453125,-0.001855272477865219,0.012302432212233544,0.023658450419828295
1715194651421797400,8.59379736328125,-0.0003606500059366226,0.006915195349091663,0.024432576597481964
1715194651431871200,8.603871337890626,0.0002408230185508728,0.003086019849218428,0.011085603768378496
1715194651441945000,8.613945068359374,0.00966740753352642,0.0089265351715032,0.014664265972748398
1715194651452020200,8.624020263671875,0.005331424155831337,-0.01080013789050281,0.007253332129120826
1715194651462094000,8.634093994140626,-0.004687281033396721,0.007408495291369035,0.018242562850937245
1715194651472168200,8.644168212890625,-0.00019406126737594602,0.012906846112478524,0.028515973453596234
1715194651482243000,8.6542431640625,0.012379004579782485,0.009224467805307357,0.02140219592563808
1715194651492317200,8.664317138671874,-0.012311784562468528,0.004337791742291301,0.014223098076507448
1715194651502391000,8.67439111328125,0.008479074531793593,0.003706252373103052,0.012229805367439985
1715194651512466200,8.684466064453124,0.02344751108288765,0.008851981231104582,0.0067920712929219005
1715194651522540000,8.6945400390625,0.006097147831320762,0.006930749111250042,0.008328194819018244
1715194651532614100,8.7046142578125,0.00400631303191185,0.014013126853946595,0.0033528175592422486
1715194651542688300,8.714688232421874,0.007891630032658576,0.006629007952008396,-0.00033230069428682324
1715194651552763100,8.72476318359375,0.0031049802780151363,0.020338293021172283,0.02791099329777062
1715194651562837200,8.734837158203124,0.002806289592385292,0.020668712285626677,0.006352145505696535
1715194651572911400,8.744911376953125,0.021663550275564193,0.004839822980295867,0.013192512919753789
1715194651582986200,8.754986328125,0.011188918012380599,0.008503240858670323,0.00899001972861588
1715194651593060400,8.765060302734375,0.00774549956023693,0.01937377710426226,0.009318959422037004
1715194651603134200,8.77513427734375,0.007301847445964813,0.01767694659112021,0.01765351091660559
1715194651613208000,8.7852080078125,0.020323826104402542,-0.00008327610297128557,-0.0009522592235356569
1715194651623283200,8.795283203125,0.00027998598515987394,0.019888686090148985,0.012717881145328283
1715194651633357000,8.805357177734376,0.00475917722582817,0.0008704626915976405,0.012683540484309195
1715194651643431200,8.81543115234375,-0.01020633671581745,-0.0011904884262010453,0.03006400661319494
1715194651653506000,8.825506103515625,-0.002874678653478622,0.015710286160651593,0.017761866661906243
1715194651663580200,8.835580078125,0.0004155950635671615,0.0001571633230894804,0.006538023466616869
1715194651673654000,8.845654052734375,-0.004072948527336121,0.008777564288023858,0.008458908526599408
1715194651683728100,8.85572802734375,0.006253799697756767,0.01789418780468404,0.01622398957014084
1715194651693803000,8.865802978515624,-0.0034749826341867445,0.011318480942491441,-0.0007870587244629859
1715194651703877000,8.875877197265625,-0.010202829584479331,0.009681490857806056,0.016960341020673512
1715194651713951200,8.885951171875,0.0019195698857307434,-0.0014399331426247954,0.011089768486842512
1715194651724026000,8.896026123046875,0.02092296104133129,0.014753880484960973,0.003628784956410527
1715194651734100200,8.906100341796876,0.01614800172448158,0.01163198560476303,0.002867299064621329
1715194651744174300,8.91617431640625,0.005091770181059837,0.0052209951844532036,0.013751169715821743
1715194651754249200,8.926249267578125,0.002559621354937553,0.013033961357176303,0.009564823941886425
1715194651764323300,8.9363232421875,0.012738485541939735,0.018671236591786145,0.0032356209203600883
1715194651774397200,8.946397216796875,-0.0017810381978750228,0.0012225275322794913,0.010774565057829021
1715194651784471300,8.95647119140625,0.01632277376949787,0.015312719944119452,0.004072583201155066
1715194651794546200,8.966546142578125,-0.0017880524605512619,0.023891345860250292,0.012379077645018697
1715194651804620300,8.976620361328125,0.005697919380664825,0.0005806402990128844,0.013691037026420235
1715194651814694100,8.986694091796876,0.024837504136562345,-0.001529191461810842,0.022413345729559657
1715194651824769300,8.996769287109375,0.004925765964388847,0.013858036756934597,0.009814926245436072
1715194651834843100,9.006843017578126,0.001491115340590477,0.017868761102482675,0.014977131314203142
1715194651844917000,9.0169169921875,0.00464110380411148,0.0033597861561458554,0.027146292535588142
1715194651854991000,9.0269912109375,0.003135375416278839,0.01734503862247802,0.019481968452781436
1715194651865066000,9.03706591796875,0.006721417209506034,0.006696264501940458,0.009378361459076404
1715194651875140000,9.04714013671875,0.011669979527592658,0.021672683430090545,0.0043164018943905825
1715194651885214200,9.057214111328125,0.0031412206351757047,0.0193146307955496,0.01687142062820494
1715194651895289000,9.0672890625,-0.004940963533520699,0.016717581773363053,0.010620324344187974
1715194651905363000,9.077363037109375,0.010018705189228058,0.003547207620181143,0.01788147445358336
1715194651915436800,9.087436767578126,-0.0025531916141510007,0.003770896840840578,-0.00018339374288916586
1715194651925511000,9.097510986328125,-0.0031482348978519436,0.008579968489846214,-0.004249254942312836
1715194651935585800,9.107585693359376,0.017495909202098845,-0.0017573467950336634,0.003034180064126849
1715194651945660000,9.117659912109374,0.018687164813280106,0.012157251587882638,0.003837240075320005
1715194651955733800,9.127733642578125,0.005367664512991905,0.019388116156868637,0.010292553694546222
1715194651965809000,9.137808837890624,-0.0022638532787561416,0.018577146833855657,0.008657353708148002
1715194651975882800,9.1478828125,0.0023836802661418915,0.013118141642445697,-0.002222717550769448
1715194651985956600,9.15795654296875,0.011372457885742187,0.000601308627706021,0.00046418344564735887
1715194651996030700,9.16803076171875,-0.00537701686322689,0.012535857375618069,0.011107523339241742
1715194652006105900,9.17810595703125,0.007480711144208908,0.0008250983130652457,0.02561294548846781
1715194652016179700,9.1881796875,0.0013408932149410247,0.012726840769918635,0.005012932791188359
1715194652026253800,9.19825390625,-0.0019411971956491468,0.02495729459132999,0.015524097672477364
1715194652036328700,9.20832861328125,0.00016425065100193021,0.017741782855102792,0.01808401128835976
1715194652046402800,9.21840283203125,-0.005362988337874412,0.02491326365335844,0.011092837226763366
1715194652056477000,9.228476806640625,0.00466857633292675,0.020511128837428987,-0.0003742401398718357
1715194652066550800,9.23855078125,0.005716624081134796,0.01610916755143553,0.01067863040268421
1715194652076626000,9.2486259765625,0.004211480215191841,0.007022080656513571,0.018423253180086613
1715194652086699800,9.25869970703125,0.004655132329463958,-0.0004487301481887698,0.01549896323122084
1715194652096774000,9.26877392578125,0.0052688803136348725,0.0013636713023297488,0.022323037097603082
1715194652106848800,9.278848876953125,0.00018821604847908018,-0.0019271686702966688,0.019257219786196947
1715194652116923000,9.2889228515625,0.01141454346179962,0.00609139394396916,0.029539836608618496
1715194652126996700,9.298996826171875,0.012909750455617904,0.008181077965907751,0.013244316172227263
1715194652137071900,9.30907177734375,-0.004007482075691223,0.01887236692076549,0.002747106751054525
1715194652147145700,9.319145751953124,0.012599369332194327,0.016059145264094694,0.008173881040140985
1715194652157219800,9.3292197265625,0.006754150435328483,0.01390490810596384,0.009764145906269549
1715194652167293700,9.339293701171876,-0.01075578729212284,0.01158874011808075,0.0027536826223134993
1715194652177368800,9.349368896484375,0.011519172880053519,0.015099351188074796,0.002387041267007589
1715194652187442700,9.359442626953125,0.012282558467984199,0.006778207164350896,0.012386822560057043
1715194652197516800,9.369516845703124,0.01393733993768692,0.0028667693416588006,0.010323606419935821
1715194652207591700,9.379591796875,0.009298574221134186,0.014323626708379014,0.019445289704203606
1715194652217665800,9.389665771484376,-0.006107669225335121,0.011716366819432004,0.016501418272033334
1715194652227740000,9.399739990234375,0.024887188497185707,0.003887856017705053,0.0033596856914460656
1715194652237813800,9.409813720703125,0.00977495956122875,0.003865132729243487,0.00170088563375175
1715194652247889000,9.419888916015625,-0.016557751569151877,0.017652908128406853,0.026342794132977722
1715194652257962800,9.429962646484375,0.019054829081892967,0.005562520364811644,0.004531067558377981
1715194652268036900,9.440036865234376,0.015471709898114203,-0.0021948614294640717,-0.0009766630124300717
1715194652278111700,9.45011181640625,0.0031949966490268707,0.010099424008931964,0.015572759119793772
1715194652288185900,9.460185791015626,0.010976736566424368,0.008777984413132071,0.01822699995562434
1715194652298259700,9.470259765625,0.007093757653236389,0.013887345049809664,0.006753346717730164
1715194652308333800,9.480333740234375,0.007386018598079681,0.019281166917365044,0.005798968602344394
1715194652318408700,9.49040869140625,0.006494038194417953,0.012708492262475191,-0.0026628625337034462
1715194652328482800,9.50048291015625,0.010980828219652175,0.013838829732965676,0.0018476736932992934
1715194652338556700,9.510556640625,0.011585223853588103,0.0026065018371213226,0.004763926466181874
1715194652348631800,9.5206318359375,0.006204115337133408,0.01014273342769593,0.001850742433220148
1715194652358705700,9.53070556640625,-0.005314473021030426,0.005746873088926076,0.006897504428774118
1715194652368779800,9.54077978515625,-0.00651508098244667,0.030656985803972928,0.013842282065376639
1715194652378854000,9.55085400390625,0.008446925827860831,0.005114155542803928,0.013733414863422512
1715194652388928800,9.5609287109375,0.0009627075523138045,0.004218567543104291,0.0164363902118057
1715194652399003000,9.5710029296875,0.0011170213311910628,0.024248817528411744,0.004530775297433138
1715194652409076700,9.58107666015625,0.010691489884257315,0.019753579335240645,0.0017233166612684726
1715194652419152000,9.59115185546875,0.015468202766776084,0.019239839393133295,0.008627616157010198
1715194652429225700,9.601225830078125,0.004538227951526642,0.006207001413963735,0.017224252653867005
1715194652439299800,9.6112998046875,0.010074819290637969,0.0034666349309496578,-0.0031626287493854758
1715194652449373700,9.621373779296874,0.00395487510561943,0.005790876627434044,0.004416501267999411
1715194652459448800,9.63144873046875,0.0005196399599313736,0.00435499860541895,0.007957096484303474
1715194652469522700,9.641522705078126,0.004397358176112175,0.0039111272954382,0.009927812035381794
1715194652479596800,9.6515966796875,0.003206687086820602,0.001061272555962205,0.021530498480424282
1715194652489671700,9.661671630859376,0.008304302486777305,0.01510207286812365,0.008848200105130672
1715194652499745800,9.671745849609374,-0.0012736731976270674,0.0007793868746608496,0.006612257746607065
1715194652509819600,9.681819580078125,0.009648118311166763,0.008122918037883937,-0.0026413813542574644
1715194652519893800,9.691893798828126,0.021471242573857307,0.008005757931619882,0.018302111018449068
1715194652529968600,9.70196875,0.0014250643670558928,0.005584978791791945,0.0014927958410233257
1715194652540042800,9.712042724609375,0.008610591956973076,0.01106936501963064,0.006120674837380647
1715194652550116900,9.722116943359374,0.024326047483086585,0.01626855936422944,-0.002749225642904639
1715194652560191700,9.732191650390625,0.017905074524879456,0.004930643068905919,0.003518383384495973
1715194652570265900,9.742265869140626,0.026593407893180845,0.010902146093407646,0.015645751290768384
1715194652580339700,9.752339599609375,0.00684884298145771,0.024761881617084144,0.006569003126770258
1715194652590414800,9.762414794921876,-0.0075122753262519834,0.01327983501018025,0.021944705304503438
1715194652600488700,9.77248876953125,-0.004820552024245262,0.015587180370790883,0.034676103518530725
1715194652610562800,9.782562744140625,-0.0022755437165498734,0.009051677654823289,0.0208892779674381
1715194652620636700,9.79263671875,0.005948094749450683,0.023031422828976064,0.009739742117375135
1715194652630711800,9.8027119140625,0.01567395447194576,0.012712045059585944,0.0167860804323107
1715194652640785700,9.81278564453125,0.005794950014352798,0.005310792359756305,0.007257789108529687
1715194652650859800,9.82285986328125,-0.0013847323566675185,0.0201400944347959,-0.012088862526789307
1715194652660933600,9.83293359375,0.00220247848033905,0.010497985739307478,-0.002594911864027381
1715194652671008800,9.8430087890625,-0.007514028891921043,0.009006011882191524,0.00594604892283678
1715194652681082600,9.85308251953125,-0.004506079247593879,0.007950283151026815,0.0015642536420375109
1715194652691157000,9.863156982421875,0.002532148826122284,0.019930497671570627,-0.010904328917339444
1715194652701231600,9.873231689453124,0.008667290580272675,0.023626593976840374,0.009002879210188984
1715194652711306000,9.883305908203125,0.0029869068562984463,0.00888960069459863,0.005024842424690723
1715194652721379800,9.8933798828125,0.0006067337214946747,0.014287231087591497,-0.0012889438319951296
1715194652731455000,9.903455078125,0.014689035087823868,0.008840802249964325,0.018677374071627853
1715194652741528800,9.91352880859375,0.013638649252057074,0.01615766460197046,-0.00016242402009665965
1715194652751603000,9.92360302734375,0.014538812962174415,0.0045176235549151894,-0.00034669454582035537
1715194652761676800,9.9336767578125,0.0024275194078683853,-0.001731865293905139,0.005356047140434384
1715194652771752000,9.943751953125,0.0021218144595623015,0.011790071376459672,0.010977832544967531
1715194652781825800,9.95382568359375,-0.0076017071753740305,0.006701579997874796,0.011828092698752879
1715194652791899600,9.963899658203125,0.022491233271360395,0.015742562728747723,0.017888780977204442
1715194652801974800,9.973974853515625,0.019511340677738187,0.012073464028257876,0.01772548017427325
1715194652812048600,9.984048583984375,0.01638648665547371,0.006221230868715792,-0.0010673369705677031
1715194652822122800,9.994122802734376,0.01907645639181137,0.012167681650351732,-0.0058235185217112295
1715194652832196600,10.004196533203125,0.011745967373251915,0.017065518428198992,0.019297990188002587
1715194652842271700,10.014271728515626,0.018028993165493012,0.004483374225441366,0.014682093890383838
1715194652852345600,10.024345703125,0.007552607336640357,0.011438673256058246,0.01142681842148304
1715194652862420000,10.034419921875,0.016528525474667547,0.007467020545573905,-0.01171893323585391
1715194652872494600,10.04449462890625,-0.0038122517645359038,0.005890948601579293,0.019728344429284332
1715194652882569000,10.05456884765625,-0.01428454594016075,0.0003057414809241891,0.017004618553817272
1715194652892642800,10.064642822265625,-0.007401800689101219,0.016473954876372588,0.0025013152964413164
1715194652902717200,10.07471728515625,0.01983984197974205,0.015113827237999066,0.014819602664932608
1715194652912792000,10.0847919921875,0.013551555490493774,-0.0027598201021552084,0.01561959393620491
1715194652922866200,10.0948662109375,0.001886252138018608,0.0009976692678406833,0.0050334641225636
1715194652932940000,10.10493994140625,0.0050339025139808655,0.0125524340510834,0.010346768099814652
1715194652943015200,10.11501513671875,0.002787584891915321,0.03058919039792381,0.02669248435348272
1715194652953089000,10.125089111328125,0.01011748938858509,0.005882189906388521,-0.007692088872566819
1715194652963163100,10.1351630859375,0.0056336219727993,0.002430094957444817,-0.00011515081226825714
1715194652973237000,10.145237060546876,0.004136661413311958,0.01390551089416258,0.021303850117698312
1715194652983312100,10.15531201171875,0.017152794852852822,0.01892247140649706,0.014739961557462811
1715194652993386000,10.165385986328126,0.012069792500138283,0.012005549891199917,0.010915069507062435
1715194653003460000,10.175460205078124,0.003385550785064697,0.0076750646725296965,0.003634995501488447
1715194653013535000,10.185534912109375,0.015358312651515006,0.003401360275549814,0.007067527233436704
1715194653023609000,10.195609130859374,-0.003496609944105148,0.00457892528809607,0.005276844424381852
1715194653033683000,10.205682861328125,-0.0028939678758382794,-0.0028532340066507456,0.018403160240128634
1715194653043757000,10.215757080078125,-0.00018996961414813993,0.009767707836534828,0.02709996917583048
1715194653053832000,10.22583203125,-0.0028770167410373687,0.010628964308369904,0.0021808511704206465
1715194653063906000,10.235906005859375,-0.011401683980226516,0.016667166760377584,0.005122384515032172
1715194653073980200,10.245980224609376,0.0016121113717555999,0.016425859684636817,0.01086582353785634
1715194653084055300,10.25605517578125,0.004012742772698402,0.010455324774514883,0.0007220306642353534
1715194653094129200,10.266129150390626,-0.0063052376240491865,0.007665237398259341,0.00930083924345672
1715194653104203000,10.276203125,-0.0022597616255283356,0.017928884658729657,0.013557108448445796
1715194653114277000,10.286277099609375,-0.0004693710774183273,0.004330795745924115,-0.006276522986218333
1715194653124352000,10.29635205078125,0.003869534909725189,0.003385495986137539,0.02214439259506762
1715194653134426000,10.306426025390625,0.01689268261194229,0.012818628972908482,-0.0026054332580417393
1715194653144500000,10.3165,0.009120879566669463,0.0233169069731608,0.0041395109575241805
1715194653154575000,10.3265751953125,0.013324176475405692,0.010424546043761074,0.018302184083685277
1715194653164649000,10.33664892578125,0.0028460370808839797,0.011254567127116024,0.009211480459570884
1715194653174723000,10.34672314453125,0.0007534487158060073,0.005415321313310414,0.009608297757431864
1715194653184797000,10.356796875,0.014526538002490997,0.016615655768848953,0.018496537612006068
1715194653194872000,10.3668720703125,0.00436053329706192,0.0013157587736845017,0.006256649241968989
1715194653204946000,10.37694580078125,0.0076589903205633155,0.014852719483245163,0.012615809010341763
1715194653215020300,10.387020263671875,-0.0020762217521667478,0.014823365524597466,0.010793415888771415
1715194653225095000,10.397094970703124,-0.0020808979272842407,0.030278854940272867,-0.0003691986385732889
1715194653235169300,10.407169189453125,-0.004618307450413704,0.016945810171822086,0.005234466587379575
1715194653245243100,10.4172431640625,-0.0007324059277772903,0.022728485226491464,0.010972498782724141
1715194653255318300,10.427318359375,0.009142506876587866,0.006869757905323058,0.003181552645564079
1715194653265392000,10.43739208984375,0.014980126988887786,0.006080361093301325,0.006002893676608801
1715194653275466000,10.447466064453126,0.016921908706426618,0.004890146661736071,0.0033534751463681458
1715194653285540000,10.4575400390625,-0.0010240823507308959,0.008223665865464136,0.0032104864791035652
1715194653295615000,10.467614990234376,0.007958265528082847,0.015118795674061401,0.011555047911033034
1715194653305689000,10.477689208984375,0.007960019093751906,0.007882862204313277,0.025449717750772833
1715194653315763000,10.487762939453125,-0.0023714053064584732,0.003123730644257739,0.018058000064268706
1715194653325838000,10.497838134765624,0.003022562691569328,-0.005038450824934989,0.005997048457711935
1715194653335912000,10.507911865234375,0.006176058286428451,0.006762425073329359,0.00509644635617733
1715194653345986000,10.517986083984376,0.007968202400207519,0.024111363552790133,0.00889072407260537
1715194653356060000,10.528059814453124,-0.0010047931283712387,0.008079279825557022,0.014782120198756455
1715194653366135000,10.538135009765625,0.02578326055407524,0.0006472757944371551,-0.01174647882990539
1715194653376209000,10.548208984375,0.01949731215238571,0.002782013667654246,-0.00006955810487270355
1715194653386283300,10.558283203125,-0.011926000115275382,0.006233460162626579,0.014334449496492742
1715194653396358000,10.56835791015625,0.008422960430383682,0.005611245744209736,0.0022572043422609566
1715194653406432300,10.578432373046875,0.020535423028469085,0.013720920708030462,-0.013942892895638942
1715194653416506000,10.588506103515625,-0.0037011926054954527,0.016639721631025894,-0.0012733809366822241
1715194653426580200,10.598580322265626,-0.009685527712106705,-0.0003565948853269219,0.0018378829516470432
1715194653436655000,10.608655029296875,0.010814824002981185,-0.00003488865029066801,0.0027351240523159504
1715194653446729200,10.618729248046876,0.02547638656198978,0.0070811721662990745,0.01712853719443083
1715194653456803000,10.628802978515624,0.0024316110610961912,0.012847389276511967,0.008167378234118223
1715194653466878200,10.638878173828125,0.005285246926546096,0.00629804069828242,0.007141103926301002
1715194653476952000,10.6489521484375,0.015012275692820548,0.0027617837303783744,0.008476444183290004
1715194653487026000,10.65902587890625,0.007077391040325165,0.004452604627842084,0.014810396445170043
1715194653497100000,10.66910009765625,0.008277414479851723,0.015144140177872032,0.011762114790454506
1715194653507175000,10.6791748046875,0.0009486790269613265,0.016429695609537883,0.017714008932188153
1715194653517249000,10.6892490234375,0.00139817636013031,0.016856387455854563,-0.0009987287137657402
1715194653527323000,10.699322998046876,0.004835749593377113,0.019362872117757796,0.0024834873788058755
1715194653537398000,10.70939794921875,0.0034931028127670287,0.006008519699797034,-0.0058184770204126835
1715194653547472100,10.71947216796875,0.005884381863474846,0.009515541440062225,0.008274272674694657
1715194653557546200,10.729546142578124,0.008122516179084778,0.024910277111828326,0.0026579671628773212
1715194653567620000,10.7396201171875,0.014862638089060782,0.01832060565636493,0.013647782406583427
1715194653577695200,10.7496953125,0.009770283386111259,0.007957370478939265,-0.006059592299908399
1715194653587769000,10.75976904296875,0.0033481413841247557,0.010280771925207226,-0.006519537961855531
1715194653597843200,10.76984326171875,0.005298106408119201,-0.0011037051918916403,0.01377060506865382
1715194653607918000,10.77991796875,0.006192424899339676,0.01921757276239805,-0.0011376987930387258
1715194653617992200,10.7899921875,0.013081015369296073,0.012821414585039019,0.012545374122634529
1715194653628066000,10.800066162109376,0.005149053326249122,0.0027264292892068623,0.0077845163963735095
1715194653638140000,10.810139892578125,-0.003525836038589477,0.010848059552302584,-0.013928499044105409
1715194653648215000,10.820215087890626,0.01519172391295433,0.00047100591207854445,-0.0022770780865103003
1715194653658289000,10.830288818359374,0.010698504146933555,0.01303657343937084,0.016312325440719724
1715194653668363000,10.840363037109375,0.009046645286679268,0.006654955244017765,-0.0017181290294975041
1715194653678438100,10.850438232421874,0.008887655332684517,0.016267198524205013,0.02414374971874058
1715194653688512000,10.860511962890625,-0.003981178590655327,0.01616170145627111,-0.003402136593684554
1715194653698586000,10.870586181640626,-0.012357377269864082,-0.0025359208189416676,0.011368950754404068
1715194653708660200,10.88066015625,-0.002172667863965034,0.004829402050981298,0.00821947374753654
1715194653718735000,10.890735107421875,0.012788169902563094,0.016721152836782858,0.005555953626707196
1715194653728809200,10.900809326171874,0.011297639083862304,0.00795565344588831,0.008324833818152546
1715194653738883000,10.910883056640625,0.012494155392050742,0.028332104786671697,0.015067293815687298
1715194653748958200,10.920958251953126,0.0027718028008937834,0.016171336934296413,-0.0024888211410492656
1715194653759032000,10.931031982421874,0.016546645653247833,-0.0008972776332870125,0.012209274036064744
1715194653769106200,10.941106201171875,0.008618190741539002,0.0069580024443566795,0.01787533697374165
1715194653779180000,10.951179931640626,0.016706804651021957,0.011825279687158763,-0.0023044044848531484
1715194653789255200,10.961255126953125,-0.0011029928058385848,0.0001251972822472453,0.0032598055135458705
1715194653799329000,10.9713291015625,-0.0006488192975521087,0.004511303411982953,-0.01193294131271541
1715194653809403100,10.981403076171874,0.007732640078663825,0.010659012386761604,-0.009119199066236615
1715194653819478000,10.99147802734375,0.0018979425758123398,0.007119056491274386,-0.0012090835288167
1715194653829552000,11.00155224609375,0.013567922103404998,0.023732173243165015,0.026046514600142835
1715194653839626000,11.0116259765625,0.0036918402552604673,0.01909784623971209,0.005717793124914169
1715194653849700000,11.0217001953125,-0.004686111989617347,0.02204940778799355,0.009885726459324359
1715194653859775000,11.03177490234375,0.0031061493217945098,0.013932389767933637,0.00046381811946630475
1715194653869849000,11.04184912109375,0.0053606502503156656,0.016098317363858222,0.008120616482943295
1715194653879923200,11.051923095703126,0.004162380376458168,0.013466690218634903,0.0037841947138309477
1715194653889998000,11.061998046875,0.010443068081140518,0.015101908471342176,0.0125019733723253
1715194653900072200,11.072072265625,0.008651508489251137,0.021496559678204356,0.005544482384622097
1715194653910146300,11.082146240234374,-0.008398410511016845,0.012739371457928791,0.018888021147623658
1715194653920221400,11.092221435546875,-0.005856324812769889,0.013462772095343098,0.010513429903611541
1715194653930295300,11.10229541015625,0.017936054185032843,0.012736357516935094,0.02786861546076834
1715194653940369400,11.112369384765625,0.003121346890926361,0.011517665909556671,0.006009615678340196
1715194653950443300,11.122443359375,0.02032207253873348,0.017806363390758632,0.013438158243894577
1715194653960518400,11.132518310546875,-0.004822890111804009,0.01852700581550598,0.01634410881847143
1715194653970592300,11.14259228515625,0.002366144609451294,0.010268570030760019,0.0054681292127817865
1715194653980666400,11.152666259765626,0.00805354259610176,0.01328589029163122,0.003355447907745838
1715194653990741200,11.1627412109375,0.002072130098938942,0.006117103773960843,-0.004182034924998879
1715194654000815400,11.1728154296875,0.012107201901078224,0.004161092601669952,0.01618877212628722
1715194654010889200,11.18288916015625,0.005233809000253677,0.011523191468045115,0.009310264658927916
1715194654020963300,11.19296337890625,-0.002540332132577896,0.019391093565244228,0.019848609808087347
1715194654031038200,11.2030380859375,0.008681903627514838,0.008349310672283172,0.006061565061286091
1715194654041112300,11.2131123046875,0.010178279665112495,0.009321407107450068,0.0035290509089827534
1715194654051186400,11.2231865234375,0.020649989318847654,0.01107921056021005,-0.006879968772083521
1715194654061261300,11.23326123046875,0.007943067958950997,0.018113438312243667,0.0005852525420486927
1715194654071335400,11.24333544921875,0.021261399215459824,0.01604039489785209,0.015405512794107198
1715194654081409300,11.2534091796875,0.010637129348516464,0.021262878786493092,0.008824673099070786
1715194654091483400,11.2634833984375,0.011080781462788581,0.005932888047164305,0.002498611882701516
1715194654101558300,11.273558349609376,0.008389642682671547,0.01200551335858181,0.0006984305929392576
1715194654111632400,11.28363232421875,0.009148936617374419,0.010780976532306521,-0.010954816995561122
1715194654121706200,11.293706298828125,0.004670914420485496,0.006086242844816297,-0.000496332149580121
1715194654131781400,11.303781494140624,0.01469546482861042,0.004830269700661301,0.01344648768082261
1715194654141855200,11.313855224609375,0.01348550451695919,-0.0033614392571151256,0.00820887928828597
1715194654151929300,11.323929443359376,-0.0022270283997058867,0.01116762862917967,0.01826769729219377
1715194654162003200,11.334003173828124,0.010942834296822548,0.008730144949723035,0.0269259277831763
1715194654172078300,11.344078369140625,-0.008806406790018081,0.01252168271979317,0.006225158125162124
1715194654182152200,11.354152099609376,0.005720131212472915,0.02066707745096646,-0.000375774509832263
1715194654192226300,11.364226318359375,0.011707388928532599,0.023655966201797125,-0.009057678137347102
1715194654202301200,11.37430126953125,0.003937339448928833,0.005467097166320309,0.023123247564584015
1715194654212375300,11.384375244140625,0.006486439409852027,0.004044160824269056,0.01959134711138904
1715194654222449400,11.394449462890625,0.005439560705423355,0.01410960036520846,0.0028249942928552626
1715194654232523500,11.4045234375,0.007676525977253913,0.009191862443648278,0.01637150828205049
1715194654242598400,11.414598388671875,-0.0048953708261251444,0.012635079966392368,0.013560615579783915
1715194654252672500,11.424672607421876,0.0036357261538505553,0.013296028093155473,0.012926044003292917
1715194654262746400,11.434746337890624,-0.0007008417457342147,0.005187028982769698,0.011374211451411247
1715194654272821500,11.444821533203125,-0.007588263171911239,-0.001328399059548974,0.024455226820707318
1715194654282895400,11.454895263671874,0.0010877952367067335,0.007217256168741732,0.007008855848759412
1715194654292969200,11.46496923828125,-0.0020469956576824187,0.01285875092074275,0.01843297085650265
1715194654303043300,11.475043212890625,0.015310966378450393,0.003947605114616453,0.017653876242786644
1715194654313118200,11.4851181640625,0.0013876549661159514,0.011955719400104134,-0.010712532672286033
1715194654323192300,11.4951923828125,0.0018313070803880691,0.012779749134089797,0.012392375518009065
1715194654333266200,11.50526611328125,0.00767535693347454,0.016016338168829677,0.005834332176670432
1715194654343341300,11.51534130859375,0.015021043521165846,0.010163885813578962,0.0022266630735248327
1715194654353415200,11.525415283203126,0.02341302429139614,0.007815002866182476,0.010900091133639215
1715194654363489300,11.5354892578125,0.00725099404156208,0.0042073702956549825,0.0046126083619892596
1715194654373563400,11.5455634765625,0.019525369203090667,0.006019653015164658,-0.001726093140244484
1715194654383638300,11.55563818359375,-0.0157768303245306,0.0036416261716745793,-0.005940934356302023
1715194654393712400,11.56571240234375,-0.004555763608217239,0.0012843772547319532,0.007843260846287012
1715194654403786500,11.575786376953126,0.0026338556349277493,0.014768146472331135,0.011485782067105174
1715194654413861400,11.585861328125,0.02285363684296608,0.00896757956794463,0.013171689327433704
1715194654423935500,11.595935546875,0.011189502534270286,0.010389730458706616,0.011553367410600184
1715194654434009300,11.60600927734375,0.005510872375965118,0.02061438828250393,0.003982932156324386
1715194654444083200,11.616083251953125,0.0035667525708675384,0.026110446681827305,-0.0005389291822910309
1715194654454158300,11.626158447265626,0.01837327655851841,0.011274751398619264,0.011218071041628717
1715194654464232200,11.636232177734374,-0.0015378770917654036,0.01190471986522898,0.0017684709772467612
1715194654474306300,11.646306396484375,0.022251579296588896,0.00045497722588479515,0.0041889030572026965
1715194654484381400,11.65638134765625,0.014170564171671866,0.012240198897290975,0.012113631641864776
1715194654494455300,11.666455322265625,0.00923427681326866,0.013466050897818058,0.007873582919314503
1715194654504529200,11.676529052734375,-0.0019885434687137602,0.007785639774380251,-0.0006525456245988607
1715194654514603300,11.686603271484374,-0.0013876549661159514,0.02347881040344946,0.0053010290175676345
1715194654524678100,11.69667822265625,0.004141922110319138,0.008056218610377981,-0.001183437630906701
1715194654534752300,11.706752197265626,0.014469839379191397,-0.001259270212939009,-0.003933174730464816
1715194654544826400,11.716826416015625,0.013420038065314293,0.01754587669051252,0.0031385172214359043
1715194654554901200,11.7269013671875,0.014172902259230612,0.014946407382376492,0.00036430326774716375
1715194654564975400,11.736975341796875,-0.005883212819695473,0.018070083227707073,0.013282529290765522
1715194654575049500,11.747049560546875,0.00952536871433258,0.02155675629968755,0.006320069866999983
1715194654585123300,11.757123291015626,0.025832360392808913,0.01614434846267104,0.014601064543426035
1715194654595198500,11.767198486328125,0.016856442254781723,0.00002503397655673325,0.0053108197592198845
1715194654605272300,11.777272216796876,0.005036825123429298,-0.0031360056039411574,-0.003967953782901167
1715194654615346400,11.787346435546874,0.008633388310670852,0.015499858280364423,0.0010506780967116354
1715194654625421300,11.79742138671875,0.004895955348014831,0.00991614899705164,0.006402706649154424
1715194654635495400,11.807495361328124,-0.0009469254612922668,0.01906347817922942,0.00155797003172338
1715194654645569300,11.8175693359375,0.0018996961414813995,0.02058288803254254,0.009159458011388778
1715194654655643100,11.82764306640625,0.013870119920372962,0.01773898810981773,0.0057489919807761905
1715194654665718300,11.83771826171875,0.007592354825139046,0.00870148511081934,0.016281784171983598
1715194654675792100,11.847792236328125,0.0017611644536256789,0.007108936956059187,0.008871873241662978
1715194654685866200,11.8578662109375,0.0004167641073465347,0.013278364572301506,0.009433525712415576
1715194654695941000,11.867941162109375,0.004752747485041618,0.014394326457567512,0.0004961860191076994
1715194654706015200,11.87801513671875,0.0010147300004959105,0.00251605620784685,-0.007636486227810382
1715194654716089300,11.88808935546875,0.004468669846653938,0.00890176605642773,-0.002111804522201419
1715194654726163500,11.89816357421875,0.007460252878069877,0.02011538011864759,-0.003291515826061368
1715194654736238300,11.90823828125,0.020922376519441604,0.003396163510624319,0.009468304764851927
1715194654746312400,11.9183125,-0.00017126491367816925,-0.0006228720055427402,0.01615399307385087
1715194654756386300,11.92838623046875,0.014656886383891106,-0.00240108805866912,-0.010235416679829358
1715194654766461400,11.93846142578125,0.0055383449047803875,0.02003068837672472,-0.001813113836571574
1715194654776535300,11.948535400390625,-0.0013309563428163527,0.004167248347820714,0.01281089319102466
1715194654786609400,11.958609375,0.007943652480840682,0.00748025448648259,0.011500322049111127
1715194654796683300,11.968683349609375,0.0028548049092292785,0.01617006742581725,0.01435636906735599
1715194654806758400,11.97875830078125,0.005103460618853569,0.0026006018192972985,0.002773994757980108
1715194654816832300,11.988832275390624,-0.00312660758793354,0.008950664965761825,0.013111410507559776
