time,seconds_elapsed,z,y,x
1714669051411160000,0.02116015625,-0.998626708984375,-0.0999755859375,-0.000091552734375
1714669051421233000,0.03123291015625,-0.9936370849609375,-0.0986175537109375,-0.01043701171875
1714669051431306200,0.04130615234375,-0.9951629638671875,-0.1004791259765625,-0.01513671875
1714669051441379000,0.051379150390625,-1.00115966796875,-0.1015472412109375,-0.0159912109375
1714669051451452000,0.061451904296875,-1.0128173828125,-0.10211181640625,-0.019195556640625
1714669051461526000,0.071526123046875,-1.01641845703125,-0.104461669921875,-0.019805908203125
1714669051471599000,0.08159912109375,-1.01214599609375,-0.10601806640625,-0.0153350830078125
1714669051481672400,0.09167236328125,-1.0026702880859375,-0.106842041015625,-0.0010528564453125
1714669051491745500,0.10174560546875,-1.000274658203125,-0.1032867431640625,0.0091094970703125
1714669051501818400,0.111818359375,-1.002532958984375,-0.1046905517578125,0.0066375732421875
1714669051511891700,0.1218916015625,-0.9964141845703125,-0.1060638427734375,0.01165771484375
1714669051521965600,0.131965576171875,-0.995147705078125,-0.1051177978515625,0.0125732421875
1714669051532038400,0.142038330078125,-1.0024566650390625,-0.10614013671875,0.018524169921875
1714669051542111700,0.15211181640625,-1.00408935546875,-0.104644775390625,0.0182342529296875
1714669051552184600,0.1621845703125,-0.9982147216796875,-0.1053314208984375,0.0110015869140625
1714669051562257400,0.17225732421875,-0.99444580078125,-0.1066131591796875,0.016510009765625
1714669051572330500,0.18233056640625,-0.9916229248046875,-0.1059417724609375,0.0239715576171875
1714669051582404600,0.192404541015625,-0.9858551025390625,-0.10748291015625,0.0232086181640625
1714669051592477400,0.2024775390625,-0.982177734375,-0.1055450439453125,0.0196685791015625
1714669051602550500,0.212550537109375,-0.9856109619140625,-0.1063232421875,0.019561767578125
1714669051612623400,0.222623291015625,-0.9863739013671875,-0.107879638671875,0.0216522216796875
1714669051622696700,0.23269677734375,-0.9887847900390625,-0.1060028076171875,0.0230255126953125
1714669051632769500,0.24276953125,-0.98626708984375,-0.103363037109375,0.0229339599609375
1714669051642843400,0.252843505859375,-0.981292724609375,-0.099456787109375,0.02874755859375
1714669051652916500,0.26291650390625,-0.9795989990234375,-0.100189208984375,0.0365142822265625
1714669051662989600,0.272989501953125,-0.9798736572265625,-0.097930908203125,0.03802490234375
1714669051673062700,0.283062744140625,-0.982757568359375,-0.0994873046875,0.04119873046875
1714669051683135500,0.293135498046875,-0.9782867431640625,-0.0947265625,0.04339599609375
1714669051693208600,0.30320849609375,-0.9764556884765625,-0.093780517578125,0.047698974609375
1714669051703282700,0.31328271484375,-0.972930908203125,-0.0912933349609375,0.0585174560546875
1714669051713355500,0.32335546875,-0.9763946533203125,-0.0878143310546875,0.0669708251953125
1714669051723428600,0.3334287109375,-0.980133056640625,-0.087677001953125,0.0719757080078125
1714669051733501400,0.34350146484375,-0.9741058349609375,-0.0901031494140625,0.07366943359375
1714669051743574500,0.353574462890625,-0.9727935791015625,-0.0934906005859375,0.0672454833984375
1714669051753647600,0.363647705078125,-0.97802734375,-0.0960540771484375,0.059051513671875
1714669051763721500,0.373721435546875,-0.9786224365234375,-0.09735107421875,0.0546417236328125
1714669051773794300,0.383794189453125,-0.9742431640625,-0.0973663330078125,0.0501708984375
1714669051783867600,0.39386767578125,-0.974945068359375,-0.0977630615234375,0.0379486083984375
1714669051793940500,0.4039404296875,-0.992340087890625,-0.0974273681640625,0.0252685546875
1714669051804013600,0.414013671875,-1.0073394775390625,-0.0977630615234375,0.0166168212890625
1714669051814086400,0.42408642578125,-1.0107421875,-0.0999603271484375,0.008026123046875
1714669051824160500,0.434160400390625,-1.0138397216796875,-0.1002655029296875,-0.002197265625
1714669051834233600,0.444233642578125,-1.018829345703125,-0.100555419921875,-0.007659912109375
1714669051844306400,0.454306396484375,-1.0166473388671875,-0.100189208984375,-0.010345458984375
1714669051854379500,0.464379638671875,-1.0140838623046875,-0.101806640625,-0.0105743408203125
1714669051864452600,0.47445263671875,-1.0120391845703125,-0.1024169921875,-0.0038299560546875
1714669051874525400,0.484525390625,-1.01263427734375,-0.10186767578125,-0.0016632080078125
1714669051884599600,0.494599609375,-1.0084228515625,-0.098480224609375,0.0025787353515625
1714669051894672600,0.504672607421875,-0.9958953857421875,-0.093414306640625,0.0091400146484375
1714669051904745500,0.514745361328125,-0.9822235107421875,-0.0923614501953125,0.00958251953125
1714669051914818600,0.524818603515625,-0.98529052734375,-0.09173583984375,0.0055694580078125
1714669051924891400,0.534891357421875,-0.996734619140625,-0.0905914306640625,0.0038604736328125
1714669051934964500,0.544964599609375,-0.9998016357421875,-0.08929443359375,-0.0002593994140625
1714669051945038600,0.55503857421875,-1.0008544921875,-0.087982177734375,-0.0057830810546875
1714669051955111400,0.565111328125,-1.0030517578125,-0.0916595458984375,-0.0048370361328125
1714669051965184500,0.5751845703125,-1.0031280517578125,-0.0908966064453125,-0.0039520263671875
1714669051975257600,0.585257568359375,-1.000091552734375,-0.091033935546875,-0.00030517578125
1714669051985330700,0.59533056640625,-0.999725341796875,-0.0907745361328125,0.0045166015625
1714669051995403500,0.605403564453125,-0.994140625,-0.09039306640625,0.010498046875
1714669052005477400,0.615477294921875,-0.9891510009765625,-0.0879669189453125,0.013580322265625
1714669052015550700,0.62555078125,-0.98797607421875,-0.086181640625,0.0110626220703125
1714669052025623600,0.63562353515625,-0.9898834228515625,-0.083892822265625,0.0104217529296875
1714669052035696400,0.6456962890625,-0.9928741455078125,-0.083343505859375,0.0063323974609375
1714669052045769500,0.65576953125,-0.994415283203125,-0.080108642578125,0.00482177734375
1714669052055842600,0.665842529296875,-0.9961700439453125,-0.082000732421875,0.0029449462890625
1714669052065916400,0.67591650390625,-0.9969024658203125,-0.082611083984375,0.00262451171875
1714669052075989500,0.685989501953125,-0.9996490478515625,-0.083404541015625,0.003875732421875
1714669052086062300,0.696062255859375,-0.99774169921875,-0.083648681640625,0.00421142578125
1714669052096135700,0.7061357421875,-0.99774169921875,-0.08428955078125,0.0043792724609375
1714669052106208500,0.71620849609375,-0.99908447265625,-0.084930419921875,0.0009002685546875
1714669052116281600,0.726281494140625,-1.0001983642578125,-0.0855560302734375,0.0043182373046875
1714669052126355700,0.736355712890625,-0.9996795654296875,-0.087249755859375,0.0070953369140625
1714669052136428500,0.746428466796875,-0.9965667724609375,-0.0875244140625,0.0104217529296875
1714669052146501600,0.756501708984375,-0.99676513671875,-0.08697509765625,0.0111236572265625
1714669052156574500,0.766574462890625,-0.9942779541015625,-0.085845947265625,0.010589599609375
1714669052166647600,0.7766474609375,-0.9949493408203125,-0.084991455078125,0.011016845703125
1714669052176720600,0.786720703125,-0.9954986572265625,-0.08526611328125,0.009490966796875
1714669052186794500,0.79679443359375,-0.99432373046875,-0.0826416015625,0.0084991455078125
1714669052196867600,0.80686767578125,-0.99456787109375,-0.083160400390625,0.008575439453125
1714669052206940400,0.8169404296875,-0.9950103759765625,-0.08056640625,0.0081329345703125
1714669052217013500,0.827013427734375,-0.99652099609375,-0.0810089111328125,0.0055694580078125
1714669052227086600,0.837086669921875,-0.99456787109375,-0.0802459716796875,0.0066680908203125
1714669052237159400,0.847159423828125,-0.99346923828125,-0.0819091796875,0.0107574462890625
1714669052247233500,0.857233642578125,-0.995147705078125,-0.082427978515625,0.00946044921875
1714669052257306600,0.867306640625,-0.9931793212890625,-0.08294677734375,0.0115509033203125
1714669052267379500,0.87737939453125,-0.9945068359375,-0.08349609375,0.0125732421875
1714669052277452500,0.88745263671875,-0.9937286376953125,-0.0830841064453125,0.0152587890625
1714669052287525400,0.897525390625,-0.9934234619140625,-0.082244873046875,0.0146636962890625
1714669052297598700,0.9075986328125,-0.99371337890625,-0.084014892578125,0.0150604248046875
1714669052307672600,0.917672607421875,-0.9934844970703125,-0.0841217041015625,0.0139007568359375
1714669052317745400,0.927745361328125,-0.9930877685546875,-0.0849761962890625,0.0131683349609375
1714669052327818800,0.93781884765625,-0.9936676025390625,-0.0833740234375,0.0111083984375
1714669052337891600,0.9478916015625,-0.9945526123046875,-0.085723876953125,0.0123748779296875
1714669052347964400,0.95796435546875,-0.99554443359375,-0.0844268798828125,0.0125579833984375
1714669052358037500,0.96803759765625,-0.9929656982421875,-0.08447265625,0.0119171142578125
1714669052368111600,0.978111572265625,-0.99505615234375,-0.0840301513671875,0.0122528076171875
1714669052378184400,0.988184326171875,-0.997039794921875,-0.0845489501953125,0.0108795166015625
1714669052388257500,0.998257568359375,-0.9958343505859375,-0.0833740234375,0.01104736328125
1714669052398330400,1.008330322265625,-0.9954833984375,-0.0846099853515625,0.011505126953125
1714669052408403700,1.01840380859375,-0.997772216796875,-0.08331298828125,0.0110626220703125
1714669052418476500,1.0284765625,-0.9971771240234375,-0.0844879150390625,0.01123046875
1714669052428550400,1.03855029296875,-0.994415283203125,-0.0838623046875,0.012176513671875
1714669052438623500,1.04862353515625,-0.9921722412109375,-0.083251953125,0.011688232421875
1714669052448696600,1.058696533203125,-0.9965057373046875,-0.0825958251953125,0.0111846923828125
1714669052458769700,1.068769775390625,-0.99627685546875,-0.0846710205078125,0.0141754150390625
1714669052468842500,1.078842529296875,-0.9952545166015625,-0.0839691162109375,0.0111541748046875
1714669052478915300,1.088915283203125,-0.999603271484375,-0.08245849609375,0.0109100341796875
1714669052488988700,1.09898876953125,-0.997802734375,-0.0833282470703125,0.0125274658203125
1714669052499062800,1.109062744140625,-0.9957122802734375,-0.0809326171875,0.0137939453125
1714669052509135600,1.119135498046875,-0.9955902099609375,-0.0807952880859375,0.0124664306640625
1714669052519208700,1.129208740234375,-0.9948272705078125,-0.08203125,0.012725830078125
1714669052529281500,1.139281494140625,-0.9947509765625,-0.082550048828125,0.010589599609375
1714669052539355000,1.14935498046875,-0.9956512451171875,-0.081024169921875,0.010955810546875
1714669052549427700,1.159427734375,-0.9959716796875,-0.0807647705078125,0.0106353759765625
1714669052559501600,1.16950146484375,-0.99359130859375,-0.0814056396484375,0.011138916015625
1714669052569574700,1.17957470703125,-0.99395751953125,-0.080322265625,0.0130767822265625
1714669052579647700,1.189647705078125,-0.993621826171875,-0.0808563232421875,0.012542724609375
1714669052589720800,1.199720947265625,-0.994110107421875,-0.0791778564453125,0.0106048583984375
1714669052599793700,1.209793701171875,-0.994415283203125,-0.07879638671875,0.0132598876953125
1714669052609866500,1.219866455078125,-0.996246337890625,-0.0804595947265625,0.012939453125
1714669052619940900,1.22994091796875,-0.9968109130859375,-0.080047607421875,0.010498046875
1714669052630013700,1.240013671875,-0.9970550537109375,-0.0785064697265625,0.0113983154296875
1714669052640086500,1.25008642578125,-0.9962615966796875,-0.0783233642578125,0.0118408203125
1714669052650159600,1.26015966796875,-0.99554443359375,-0.0802764892578125,0.0143280029296875
1714669052660232700,1.270232666015625,-0.9915771484375,-0.0808868408203125,0.0149078369140625
1714669052670305800,1.280305908203125,-0.9933929443359375,-0.08038330078125,0.0136260986328125
1714669052680379600,1.290379638671875,-0.9954986572265625,-0.0785369873046875,0.012237548828125
1714669052690452700,1.30045263671875,-0.9972076416015625,-0.0767059326171875,0.011566162109375
1714669052700525800,1.31052587890625,-0.9973602294921875,-0.0771331787109375,0.012451171875
1714669052710598700,1.3205986328125,-0.9966888427734375,-0.077392578125,0.0101165771484375
1714669052720671700,1.330671630859375,-0.9968109130859375,-0.078399658203125,0.0090789794921875
1714669052730744600,1.34074462890625,-0.99542236328125,-0.0796051025390625,0.0097198486328125
1714669052740818700,1.350818603515625,-0.998626708984375,-0.0791473388671875,0.01055908203125
1714669052750891800,1.360891845703125,-0.9974517822265625,-0.0791473388671875,0.01043701171875
1714669052760964600,1.370964599609375,-0.99688720703125,-0.0785980224609375,0.011627197265625
1714669052771037700,1.38103759765625,-0.9985809326171875,-0.0797576904296875,0.0110321044921875
1714669052781110800,1.39111083984375,-0.998077392578125,-0.0765838623046875,0.0100860595703125
1714669052791183600,1.40118359375,-0.9951019287109375,-0.078155517578125,0.0106353759765625
1714669052801256700,1.411256591796875,-0.997314453125,-0.07720947265625,0.0111846923828125
1714669052811330800,1.421330810546875,-0.996307373046875,-0.07745361328125,0.0107269287109375
1714669052821403600,1.431403564453125,-0.9958648681640625,-0.07696533203125,0.0119476318359375
1714669052831476700,1.441476806640625,-0.99713134765625,-0.0766448974609375,0.01275634765625
1714669052841549600,1.451549560546875,-0.9953460693359375,-0.077301025390625,0.0123443603515625
1714669052851622700,1.46162255859375,-0.9958648681640625,-0.0767364501953125,0.0111083984375
1714669052861695700,1.47169580078125,-0.9970855712890625,-0.077301025390625,0.011444091796875
1714669052871769600,1.48176953125,-0.995635986328125,-0.07806396484375,0.010955810546875
1714669052881842700,1.4918427734375,-0.9944915771484375,-0.0776519775390625,0.0101470947265625
1714669052891915800,1.501915771484375,-0.99578857421875,-0.0775909423828125,0.0101318359375
1714669052901988900,1.51198876953125,-0.9962158203125,-0.0791778564453125,0.0126495361328125
1714669052912061700,1.522061767578125,-0.995452880859375,-0.078155517578125,0.011627197265625
1714669052922134500,1.532134521484375,-0.99713134765625,-0.0781402587890625,0.0117340087890625
1714669052932209000,1.542208984375,-0.99774169921875,-0.0780792236328125,0.01287841796875
1714669052942281700,1.55228173828125,-0.9968719482421875,-0.0792388916015625,0.0118865966796875
1714669052952354600,1.5623544921875,-0.9969024658203125,-0.0789642333984375,0.0110321044921875
1714669052962427600,1.572427734375,-0.9962310791015625,-0.0787200927734375,0.0131072998046875
1714669052972500700,1.582500732421875,-0.9975738525390625,-0.0794830322265625,0.0116729736328125
1714669052982573800,1.59257373046875,-0.9971771240234375,-0.0794677734375,0.0110321044921875
1714669052992647700,1.602647705078125,-0.9966888427734375,-0.078216552734375,0.0116119384765625
1714669053002720500,1.612720458984375,-0.994140625,-0.078765869140625,0.00933837890625
1714669053012793900,1.6227939453125,-0.995208740234375,-0.07806396484375,0.011260986328125
1714669053022866700,1.63286669921875,-0.99603271484375,-0.077667236328125,0.0132293701171875
1714669053032939800,1.642939697265625,-0.9954071044921875,-0.078125,0.0121002197265625
1714669053043012600,1.6530126953125,-0.9938201904296875,-0.07855224609375,0.0125732421875
1714669053053085700,1.663085693359375,-0.9970855712890625,-0.078399658203125,0.0112762451171875
1714669053063159800,1.673159912109375,-0.9948577880859375,-0.07794189453125,0.012054443359375
1714669053073232600,1.683232666015625,-0.995208740234375,-0.079193115234375,0.012664794921875
1714669053083305500,1.693305419921875,-0.996337890625,-0.0783538818359375,0.0114898681640625
1714669053093378800,1.70337890625,-0.9977569580078125,-0.0781097412109375,0.0124664306640625
1714669053103451600,1.71345166015625,-0.99676513671875,-0.0779266357421875,0.012237548828125
1714669053113524700,1.723524658203125,-0.9973602294921875,-0.0786895751953125,0.0126495361328125
1714669053123598800,1.733598876953125,-0.996734619140625,-0.0784912109375,0.01104736328125
1714669053133671700,1.743671630859375,-0.9976806640625,-0.0769195556640625,0.010955810546875
1714669053143744800,1.753744873046875,-0.9969635009765625,-0.0782623291015625,0.012420654296875
1714669053153817600,1.763817626953125,-0.9982452392578125,-0.077911376953125,0.0123443603515625
1714669053163890700,1.773890625,-0.99615478515625,-0.0785064697265625,0.01055908203125
1714669053173963800,1.7839638671875,-0.996063232421875,-0.07818603515625,0.0105133056640625
1714669053184037600,1.79403759765625,-0.996307373046875,-0.076416015625,0.0110626220703125
1714669053194110700,1.80411083984375,-0.9954071044921875,-0.077667236328125,0.01263427734375
1714669053204183600,1.81418359375,-0.996429443359375,-0.077301025390625,0.01263427734375
1714669053214256600,1.824256591796875,-0.9966278076171875,-0.0771484375,0.01336669921875
1714669053224329700,1.834329833984375,-0.99462890625,-0.0770263671875,0.01263427734375
1714669053234402600,1.844402587890625,-0.995361328125,-0.0766754150390625,0.0118560791015625
1714669053244475600,1.8544755859375,-0.99713134765625,-0.0791473388671875,0.0128936767578125
1714669053254549800,1.8645498046875,-0.9967193603515625,-0.079010009765625,0.0107269287109375
1714669053264622600,1.87462255859375,-0.9979400634765625,-0.0787811279296875,0.0121612548828125
1714669053274695700,1.88469580078125,-0.9978179931640625,-0.0771484375,0.01214599609375
1714669053284768500,1.8947685546875,-0.9962005615234375,-0.0787506103515625,0.0109405517578125
1714669053294841900,1.904841796875,-0.996917724609375,-0.07861328125,0.0130615234375
1714669053304914700,1.914914794921875,-0.9960174560546875,-0.0789947509765625,0.012603759765625
1714669053314988500,1.924988525390625,-0.9958648681640625,-0.0787200927734375,0.012237548828125
1714669053325062000,1.935061767578125,-0.994873046875,-0.0791015625,0.014129638671875
1714669053335134700,1.945134765625,-0.99603271484375,-0.078643798828125,0.012939453125
1714669053345207800,1.955207763671875,-0.99688720703125,-0.0777740478515625,0.0113372802734375
1714669053355280600,1.96528076171875,-0.9947357177734375,-0.0782928466796875,0.0123291015625
1714669053365353500,1.975353515625,-0.9948577880859375,-0.07635498046875,0.0124359130859375
1714669053375427800,1.985427734375,-0.996124267578125,-0.0776824951171875,0.0112152099609375
1714669053385500700,1.995500732421875,-0.995208740234375,-0.0779876708984375,0.0128936767578125
1714669053395573500,2.005573486328125,-0.99566650390625,-0.0778656005859375,0.0116119384765625
1714669053405646800,2.015646728515625,-0.9948883056640625,-0.0771026611328125,0.0117340087890625
1714669053415719700,2.0257197265625,-0.9956817626953125,-0.07861328125,0.0096588134765625
1714669053425792800,2.035792724609375,-0.9951934814453125,-0.0780029296875,0.010101318359375
1714669053435866600,2.04586669921875,-0.996368408203125,-0.0789642333984375,0.010894775390625
1714669053445939700,2.055939697265625,-0.996185302734375,-0.078521728515625,0.0125579833984375
1714669053456012800,2.0660126953125,-0.9952545166015625,-0.0789337158203125,0.0116119384765625
1714669053466085600,2.076085693359375,-0.9948577880859375,-0.080902099609375,0.0127105712890625
1714669053476158700,2.08615869140625,-0.9945526123046875,-0.0788726806640625,0.0123138427734375
1714669053486231800,2.096231689453125,-0.99481201171875,-0.0773773193359375,0.0113677978515625
1714669053496304600,2.1063046875,-0.9954071044921875,-0.07830810546875,0.011016845703125
1714669053506379000,2.11637890625,-0.9949188232421875,-0.0787353515625,0.01129150390625
1714669053516451800,2.126451904296875,-0.9967803955078125,-0.0778961181640625,0.011474609375
1714669053526524700,2.136524658203125,-0.9970855712890625,-0.078033447265625,0.010833740234375
1714669053536597800,2.14659765625,-0.9956207275390625,-0.0775604248046875,0.0111846923828125
1714669053546670800,2.1566708984375,-0.9968414306640625,-0.0772552490234375,0.0108642578125
1714669053556744000,2.166743896484375,-0.9957733154296875,-0.0789337158203125,0.0117950439453125
1714669053566817800,2.17681787109375,-0.9953460693359375,-0.07659912109375,0.012115478515625
1714669053576890600,2.186890625,-0.9952392578125,-0.0785675048828125,0.0115509033203125
1714669053586964000,2.1969638671875,-0.9961395263671875,-0.0773773193359375,0.0125274658203125
1714669053597036800,2.207036865234375,-0.994476318359375,-0.0778045654296875,0.013641357421875
1714669053607110000,2.21710986328125,-0.9956817626953125,-0.078521728515625,0.010467529296875
1714669053617182700,2.2271826171875,-0.996856689453125,-0.0776824951171875,0.0123291015625
1714669053627255800,2.237255859375,-0.9975128173828125,-0.07794189453125,0.01153564453125
1714669053637330000,2.247329833984375,-0.99676513671875,-0.0773468017578125,0.0103759765625
1714669053647402800,2.25740283203125,-0.9969940185546875,-0.0779876708984375,0.0119171142578125
1714669053657475600,2.2674755859375,-0.99578857421875,-0.0777435302734375,0.0126495361328125
1714669053667549000,2.277548828125,-0.995941162109375,-0.078369140625,0.013580322265625
1714669053677621800,2.287621826171875,-0.9951019287109375,-0.079498291015625,0.0130157470703125
1714669053687694800,2.29769482421875,-0.9951171875,-0.077301025390625,0.0125579833984375
1714669053697769000,2.30776904296875,-0.997039794921875,-0.0786590576171875,0.01214599609375
1714669053707841800,2.317841796875,-0.9967041015625,-0.0790557861328125,0.0104217529296875
1714669053717915000,2.327914794921875,-0.997100830078125,-0.0780792236328125,0.0108489990234375
1714669053727987700,2.33798779296875,-0.996002197265625,-0.0786590576171875,0.0117950439453125
1714669053738060800,2.348060791015625,-0.99639892578125,-0.0786895751953125,0.0133209228515625
1714669053748134000,2.3581337890625,-0.9958343505859375,-0.078338623046875,0.0148773193359375
1714669053758207700,2.368207763671875,-0.9943695068359375,-0.0780792236328125,0.0121307373046875
1714669053768280800,2.37828076171875,-0.9974212646484375,-0.0770263671875,0.01300048828125
1714669053778354000,2.38835400390625,-0.99676513671875,-0.07763671875,0.01287841796875
1714669053788426800,2.3984267578125,-0.9959716796875,-0.0771942138671875,0.0115509033203125
1714669053798499800,2.408499755859375,-0.996307373046875,-0.07843017578125,0.010955810546875
1714669053808572700,2.41857275390625,-0.9964599609375,-0.077667236328125,0.0118865966796875
1714669053818645800,2.428645751953125,-0.9960479736328125,-0.078338623046875,0.011383056640625
1714669053828719900,2.438719970703125,-0.99810791015625,-0.0789794921875,0.0108184814453125
1714669053838792700,2.448792724609375,-0.9963836669921875,-0.07867431640625,0.0116119384765625
1714669053848865800,2.45886572265625,-0.9946136474609375,-0.07763671875,0.0125885009765625
1714669053858939000,2.46893896484375,-0.9959869384765625,-0.0777740478515625,0.0128021240234375
1714669053869012000,2.479011962890625,-0.9967041015625,-0.076751708984375,0.011688232421875
1714669053879084800,2.489084716796875,-0.9957275390625,-0.078155517578125,0.01104736328125
1714669053889158700,2.49915869140625,-0.99530029296875,-0.0769195556640625,0.01220703125
1714669053899232000,2.50923193359375,-0.995880126953125,-0.077728271484375,0.0115203857421875
1714669053909304800,2.519304931640625,-0.996002197265625,-0.077880859375,0.01190185546875
1714669053919378000,2.5293779296875,-0.9962005615234375,-0.0784912109375,0.0122222900390625
1714669053929450800,2.53945068359375,-0.9958953857421875,-0.0784912109375,0.0114898681640625
1714669053939523800,2.54952392578125,-0.9966888427734375,-0.0779266357421875,0.011932373046875
1714669053949598000,2.559597900390625,-0.9952392578125,-0.0784149169921875,0.0131988525390625
1714669053959670800,2.5696708984375,-0.994720458984375,-0.0789794921875,0.0103759765625
1714669053969743600,2.57974365234375,-0.9959259033203125,-0.0780181884765625,0.011566162109375
1714669053979817000,2.58981689453125,-0.996612548828125,-0.0783538818359375,0.0118408203125
1714669053989889800,2.599889892578125,-0.9964447021484375,-0.07659912109375,0.0125885009765625
1714669053999963000,2.609962890625,-0.99755859375,-0.0768585205078125,0.01202392578125
1714669054010035700,2.62003564453125,-0.995513916015625,-0.0768585205078125,0.012481689453125
1714669054020109800,2.63010986328125,-0.9971160888671875,-0.078094482421875,0.0116729736328125
1714669054030183000,2.640182861328125,-0.9962005615234375,-0.0774383544921875,0.013458251953125
1714669054040255700,2.650255859375,-0.9951171875,-0.0767669677734375,0.0120849609375
1714669054050328800,2.660328857421875,-0.996490478515625,-0.077880859375,0.01092529296875
1714669054060402000,2.67040185546875,-0.9958038330078125,-0.077972412109375,0.0107879638671875
1714669054070474800,2.680474853515625,-0.9960479736328125,-0.07769775390625,0.0094451904296875
1714669054080548900,2.690548828125,-0.995452880859375,-0.0791015625,0.0110931396484375
1714669054090621700,2.70062158203125,-0.9957427978515625,-0.078582763671875,0.0112457275390625
1714669054100694800,2.71069482421875,-0.9962005615234375,-0.0784912109375,0.0123138427734375
1714669054110767900,2.720767822265625,-0.9962005615234375,-0.077911376953125,0.012420654296875
1714669054120840700,2.7308408203125,-0.9952850341796875,-0.078948974609375,0.013702392578125
1714669054130913800,2.740913818359375,-0.9957427978515625,-0.0778350830078125,0.012115478515625
1714669054140988000,2.75098779296875,-0.9957427978515625,-0.0776214599609375,0.0120086669921875
1714669054151060700,2.761060791015625,-0.99493408203125,-0.07757568359375,0.0131683349609375
1714669054161133800,2.7711337890625,-0.995941162109375,-0.0769195556640625,0.01190185546875
1714669054171206700,2.78120654296875,-0.996063232421875,-0.077911376953125,0.010345458984375
1714669054181280000,2.791280029296875,-0.996978759765625,-0.077606201171875,0.010406494140625
1714669054191352800,2.801352783203125,-0.9963226318359375,-0.0780181884765625,0.0128021240234375
1714669054201425700,2.81142578125,-0.993804931640625,-0.0781402587890625,0.01263427734375
1714669054211500000,2.8215,-0.995086669921875,-0.077880859375,0.013671875
1714669054221572900,2.83157275390625,-0.9968109130859375,-0.0789031982421875,0.0114898681640625
1714669054231645700,2.841645751953125,-0.9967803955078125,-0.077545166015625,0.0126800537109375
1714669054241718800,2.85171875,-0.996337890625,-0.077239990234375,0.0125732421875
1714669054251791600,2.86179150390625,-0.99481201171875,-0.07647705078125,0.013916015625
1714669054261865000,2.871864990234375,-0.99627685546875,-0.078155517578125,0.0124053955078125
1714669054271938800,2.881938720703125,-0.99627685546875,-0.0777435302734375,0.0127410888671875
1714669054282011600,2.89201171875,-0.99554443359375,-0.078643798828125,0.0108795166015625
1714669054292085000,2.9020849609375,-0.99603271484375,-0.0770263671875,0.0131378173828125
1714669054302157800,2.91215771484375,-0.9967498779296875,-0.0771484375,0.011566162109375
1714669054312231000,2.92223095703125,-0.995452880859375,-0.0765838623046875,0.011444091796875
1714669054322303700,2.9323037109375,-0.9959259033203125,-0.0780487060546875,0.011932373046875
1714669054332376800,2.942376953125,-0.995391845703125,-0.07781982421875,0.01104736328125
1714669054342451000,2.952450927734375,-0.9967041015625,-0.077056884765625,0.0126495361328125
1714669054352523800,2.962523681640625,-0.9954376220703125,-0.0776824951171875,0.0124359130859375
1714669054362596900,2.972596923828125,-0.996978759765625,-0.0778656005859375,0.0114288330078125
1714669054372670000,2.982669921875,-0.9964752197265625,-0.077606201171875,0.011993408203125
1714669054382742800,2.99274267578125,-0.994384765625,-0.0786895751953125,0.0126800537109375
1714669054392815900,3.00281591796875,-0.9949798583984375,-0.0775299072265625,0.0125579833984375
1714669054402889700,3.0128896484375,-0.996612548828125,-0.0775299072265625,0.01153564453125
1714669054412962800,3.022962890625,-0.9961700439453125,-0.0783843994140625,0.0122222900390625
1714669054423036000,3.033035888671875,-0.997344970703125,-0.0792388916015625,0.0102691650390625
1714669054433108700,3.043108642578125,-0.9968719482421875,-0.0779876708984375,0.0114288330078125
1714669054443181800,3.053181884765625,-0.9958953857421875,-0.077911376953125,0.0113983154296875
1714669054453255000,3.0632548828125,-0.99639892578125,-0.0791015625,0.011627197265625
1714669054463328000,3.073327880859375,-0.996978759765625,-0.077850341796875,0.010711669921875
1714669054473401900,3.08340185546875,-0.995758056640625,-0.077301025390625,0.0118560791015625
1714669054483475000,3.093474853515625,-0.996337890625,-0.0775909423828125,0.0123748779296875
1714669054493548000,3.103548095703125,-0.995635986328125,-0.0787811279296875,0.0115814208984375
1714669054503620900,3.113620849609375,-0.9972381591796875,-0.0775604248046875,0.0124664306640625
1714669054513693700,3.123693603515625,-0.998199462890625,-0.0775604248046875,0.0111846923828125
1714669054523767000,3.13376708984375,-0.9968109130859375,-0.0774993896484375,0.012908935546875
1714669054533841000,3.1438408203125,-0.995025634765625,-0.0778350830078125,0.0118865966796875
1714669054543913700,3.153913818359375,-0.9955596923828125,-0.078277587890625,0.012176513671875
1714669054553986800,3.16398681640625,-0.9972381591796875,-0.0778350830078125,0.0111846923828125
1714669054564060000,3.174059814453125,-0.99658203125,-0.0772247314453125,0.01300048828125
1714669054574133000,3.184133056640625,-0.996185302734375,-0.077850341796875,0.0121917724609375
1714669054584205800,3.194205810546875,-0.9967498779296875,-0.0781402587890625,0.01214599609375
1714669054594279000,3.20427880859375,-0.9957275390625,-0.078857421875,0.01171875
1714669054604353000,3.21435302734375,-0.9963836669921875,-0.0782928466796875,0.0123748779296875
1714669054614425900,3.22442578125,-0.996856689453125,-0.07794189453125,0.010498046875
1714669054624499000,3.2344990234375,-0.996917724609375,-0.076568603515625,0.0110321044921875
1714669054634571800,3.24457177734375,-0.996124267578125,-0.0777587890625,0.0119781494140625
1714669054644644900,3.254644775390625,-0.9962005615234375,-0.077056884765625,0.0103607177734375
1714669054654718000,3.264718017578125,-0.9967498779296875,-0.07745361328125,0.0107269287109375
1714669054664791800,3.274791748046875,-0.9965667724609375,-0.07672119140625,0.0107421875
1714669054674865000,3.284864990234375,-0.9959259033203125,-0.07952880859375,0.0106353759765625
1714669054684938000,3.29493798828125,-0.9953460693359375,-0.0776519775390625,0.012298583984375
1714669054695010800,3.3050107421875,-0.996307373046875,-0.0774993896484375,0.0122528076171875
1714669054705084000,3.315083984375,-0.997222900390625,-0.0780792236328125,0.0112457275390625
1714669054715156700,3.32515673828125,-0.9958953857421875,-0.078216552734375,0.0112457275390625
1714669054725230800,3.33523095703125,-0.9963531494140625,-0.077911376953125,0.011871337890625
1714669054735304000,3.345303955078125,-0.9955902099609375,-0.0786895751953125,0.0110321044921875
1714669054745376800,3.355376708984375,-0.9946441650390625,-0.0781402587890625,0.0116424560546875
1714669054755450000,3.3654501953125,-0.994659423828125,-0.0779876708984375,0.0108795166015625
1714669054765523000,3.37552294921875,-0.995941162109375,-0.077789306640625,0.01287841796875
1714669054775595800,3.385595703125,-0.995361328125,-0.0778045654296875,0.012969970703125
1714669054785668900,3.3956689453125,-0.9972686767578125,-0.077392578125,0.0120391845703125
1714669054795743000,3.405742919921875,-0.9958038330078125,-0.0777435302734375,0.0115203857421875
1714669054805815800,3.41581591796875,-0.9957275390625,-0.0770416259765625,0.0128326416015625
1714669054815889000,3.425888916015625,-0.9968109130859375,-0.078033447265625,0.0120086669921875
1714669054825961700,3.435961669921875,-0.9954681396484375,-0.07635498046875,0.0126190185546875
1714669054836035000,3.44603515625,-0.9957427978515625,-0.078216552734375,0.011199951171875
1714669054846108000,3.45610791015625,-0.9957427978515625,-0.0766448974609375,0.0125274658203125
1714669054856181800,3.466181640625,-0.9965667724609375,-0.07733154296875,0.0113525390625
1714669054866254800,3.4762548828125,-0.9965057373046875,-0.0775146484375,0.010711669921875
1714669054876328000,3.486327880859375,-0.9952850341796875,-0.077239990234375,0.011322021484375
1714669054886401000,3.496401123046875,-0.99542236328125,-0.077728271484375,0.0121002197265625
1714669054896473900,3.506473876953125,-0.996368408203125,-0.0784149169921875,0.01068115234375
1714669054906547000,3.516546875,-0.9967041015625,-0.0787811279296875,0.0123748779296875
1714669054916620000,3.5266201171875,-0.9975433349609375,-0.076263427734375,0.0127410888671875
1714669054926694000,3.53669384765625,-0.9967041015625,-0.076568603515625,0.0106964111328125
1714669054936767000,3.54676708984375,-0.9956817626953125,-0.076202392578125,0.0121002197265625
1714669054946839800,3.55683984375,-0.9959716796875,-0.0770721435546875,0.0108795166015625
1714669054956913000,3.566912841796875,-0.99603271484375,-0.0775604248046875,0.011749267578125
1714669054966986000,3.576986083984375,-0.9960479736328125,-0.0773773193359375,0.0114288330078125
1714669054977058800,3.587058837890625,-0.996307373046875,-0.07794189453125,0.0119781494140625
1714669054987132700,3.597132568359375,-0.9984588623046875,-0.0807037353515625,0.0101165771484375
1714669054997206000,3.6072060546875,-0.99700927734375,-0.0802764892578125,0.0114898681640625
1714669055007278800,3.61727880859375,-0.996368408203125,-0.0795440673828125,0.011199951171875
1714669055017352000,3.62735205078125,-0.9955596923828125,-0.078857421875,0.0116424560546875
1714669055027424800,3.6374248046875,-0.996856689453125,-0.0771942138671875,0.0129852294921875
1714669055037498000,3.647498046875,-0.9956207275390625,-0.0788726806640625,0.011932373046875
1714669055047571000,3.657571044921875,-0.9975128173828125,-0.078399658203125,0.0115966796875
1714669055057644800,3.667644775390625,-0.9974212646484375,-0.0777740478515625,0.0127716064453125
1714669055067718000,3.6777177734375,-0.997528076171875,-0.0767059326171875,0.0121917724609375
1714669055077791000,3.687791015625,-0.994903564453125,-0.0768890380859375,0.0115203857421875
1714669055087863800,3.69786376953125,-0.995452880859375,-0.0768585205078125,0.0108184814453125
1714669055097937000,3.70793701171875,-0.9953155517578125,-0.0770263671875,0.01263427734375
1714669055108009700,3.718009765625,-0.99615478515625,-0.0779266357421875,0.0110626220703125
1714669055118083800,3.728083740234375,-0.9950714111328125,-0.0770416259765625,0.01220703125
1714669055128157000,3.738156982421875,-0.995758056640625,-0.076812744140625,0.0117950439453125
1714669055138229800,3.748229736328125,-0.9953460693359375,-0.0780181884765625,0.01123046875
1714669055148302800,3.758302734375,-0.9946441650390625,-0.078338623046875,0.0124969482421875
1714669055158376000,3.7683759765625,-0.9968719482421875,-0.0783843994140625,0.01220703125
1714669055168449000,3.778448974609375,-0.995758056640625,-0.0763397216796875,0.011810302734375
1714669055178523000,3.78852294921875,-0.9958953857421875,-0.0783233642578125,0.009857177734375
1714669055188596000,3.798595947265625,-0.995452880859375,-0.07861328125,0.01165771484375
1714669055198669000,3.8086689453125,-0.9967193603515625,-0.078521728515625,0.012420654296875
1714669055208742000,3.818741943359375,-0.9965972900390625,-0.0792694091796875,0.011749267578125
1714669055218815000,3.82881494140625,-0.9963531494140625,-0.07733154296875,0.01153564453125
1714669055228887800,3.8388876953125,-0.996185302734375,-0.0792083740234375,0.0128936767578125
1714669055238961000,3.8489609375,-0.994384765625,-0.078460693359375,0.0112457275390625
1714669055249035000,3.859034912109375,-0.994903564453125,-0.078216552734375,0.01263427734375
1714669055259107800,3.86910791015625,-0.9948883056640625,-0.0772705078125,0.0123291015625
1714669055269181000,3.879180908203125,-0.9977264404296875,-0.0777740478515625,0.0118255615234375
1714669055279254000,3.88925390625,-0.9957275390625,-0.0795135498046875,0.0110321044921875
1714669055289326800,3.899326904296875,-0.9962310791015625,-0.07806396484375,0.0089111328125
1714669055299400000,3.90939990234375,-0.9951934814453125,-0.078094482421875,0.01129150390625
1714669055309474000,3.91947412109375,-0.995269775390625,-0.0775909423828125,0.0125885009765625
1714669055319547000,3.929546875,-0.9952545166015625,-0.078765869140625,0.012725830078125
1714669055329620000,3.939619873046875,-0.995330810546875,-0.0779876708984375,0.0114593505859375
1714669055339692800,3.94969287109375,-0.995208740234375,-0.0779266357421875,0.0102691650390625
1714669055349766100,3.95976611328125,-0.9971771240234375,-0.078125,0.010101318359375
1714669055359839000,3.9698388671875,-0.997283935546875,-0.0775909423828125,0.011566162109375
1714669055369911800,3.979911865234375,-0.9962615966796875,-0.078125,0.0103759765625
1714669055379986000,3.98998583984375,-0.9954681396484375,-0.0775146484375,0.0110626220703125
1714669055390059000,4.00005908203125,-0.99566650390625,-0.0770111083984375,0.011566162109375
1714669055400131800,4.0101318359375,-0.9957275390625,-0.078887939453125,0.0113372802734375
1714669055410205000,4.020204833984375,-0.996429443359375,-0.0783538818359375,0.010833740234375
1714669055420277800,4.03027783203125,-0.996307373046875,-0.077880859375,0.012176513671875
1714669055430351000,4.04035107421875,-0.99609375,-0.0773773193359375,0.011962890625
1714669055440425000,4.050425048828125,-0.996337890625,-0.078948974609375,0.0108642578125
1714669055450497800,4.060497802734375,-0.9948272705078125,-0.077301025390625,0.0117950439453125
1714669055460571000,4.07057080078125,-0.99688720703125,-0.0778045654296875,0.01153564453125
1714669055470644000,4.08064404296875,-0.996337890625,-0.0779571533203125,0.012298583984375
1714669055480717000,4.090717041015625,-0.9959869384765625,-0.0775299072265625,0.012847900390625
1714669055490789000,4.1007890625,-0.995758056640625,-0.0776824951171875,0.013092041015625
1714669055500862200,4.1108623046875,-0.9956512451171875,-0.077789306640625,0.0121612548828125
1714669055510936300,4.120936279296875,-0.995819091796875,-0.0786285400390625,0.012451171875
1714669055521009200,4.131009033203125,-0.9971466064453125,-0.076995849609375,0.0112152099609375
1714669055531082200,4.141082275390625,-0.9966583251953125,-0.0792236328125,0.0120849609375
1714669055541155000,4.151155029296875,-0.995452880859375,-0.0780029296875,0.010498046875
1714669055551228200,4.161228271484375,-0.9974365234375,-0.07733154296875,0.011383056640625
1714669055561301200,4.17130126953125,-0.9964752197265625,-0.0780181884765625,0.011932373046875
1714669055571375000,4.181375,-0.9969329833984375,-0.07769775390625,0.0110931396484375
1714669055581448200,4.1914482421875,-0.9947509765625,-0.077911376953125,0.0125885009765625
1714669055591521300,4.201521240234375,-0.9963226318359375,-0.078857421875,0.0125274658203125
1714669055601594000,4.211593994140625,-0.9965667724609375,-0.07733154296875,0.0115966796875
1714669055611667200,4.221667236328125,-0.9954681396484375,-0.07769775390625,0.0111846923828125
1714669055621740000,4.231739990234375,-0.996734619140625,-0.077667236328125,0.0122222900390625
1714669055631813000,4.241813232421875,-0.9962921142578125,-0.077850341796875,0.0125885009765625
1714669055641887200,4.25188720703125,-0.996185302734375,-0.0775146484375,0.010955810546875
1714669055651960000,4.2619599609375,-0.9976348876953125,-0.076904296875,0.012420654296875
1714669055662033200,4.272033203125,-0.995513916015625,-0.0767822265625,0.01171875
1714669055672106200,4.282106201171875,-0.9948883056640625,-0.077239990234375,0.0110626220703125
1714669055682179300,4.292179443359375,-0.996307373046875,-0.077667236328125,0.01141357421875
1714669055692252200,4.302252197265625,-0.996307373046875,-0.0784759521484375,0.0130157470703125
1714669055702326000,4.312325927734375,-0.9963226318359375,-0.078643798828125,0.01080322265625
1714669055712399400,4.3223994140625,-0.9953765869140625,-0.077911376953125,0.01116943359375
1714669055722472200,4.33247216796875,-0.996856689453125,-0.0774078369140625,0.011810302734375
1714669055732545000,4.342544921875,-0.996826171875,-0.0774078369140625,0.0132904052734375
1714669055742618000,4.3526181640625,-0.995819091796875,-0.076690673828125,0.0118865966796875
1714669055752691200,4.362691162109375,-0.9956512451171875,-0.077911376953125,0.01123046875
1714669055762764300,4.372764404296875,-0.9956512451171875,-0.078887939453125,0.0100250244140625
1714669055772838100,4.382838134765625,-0.9960784912109375,-0.077789306640625,0.011138916015625
1714669055782911000,4.392910888671875,-0.9968414306640625,-0.076873779296875,0.0126953125
1714669055792984300,4.402984375,-0.99566650390625,-0.07867431640625,0.0096588134765625
1714669055803057200,4.41305712890625,-0.9953460693359375,-0.076202392578125,0.012054443359375
1714669055813130200,4.423130126953125,-0.9952545166015625,-0.076568603515625,0.0110321044921875
1714669055823203000,4.433203125,-0.9962005615234375,-0.077392578125,0.00933837890625
1714669055833277200,4.443277099609375,-0.995697021484375,-0.07745361328125,0.0115966796875
1714669055843350300,4.453350341796875,-0.994659423828125,-0.0772552490234375,0.0115203857421875
1714669055853423000,4.463423095703125,-0.99493408203125,-0.0779571533203125,0.01104736328125
1714669055863496200,4.47349609375,-0.996063232421875,-0.07659912109375,0.011474609375
1714669055873569300,4.4835693359375,-0.9956207275390625,-0.0777435302734375,0.01373291015625
1714669055883642000,4.49364208984375,-0.995147705078125,-0.076904296875,0.010894775390625
1714669055893715200,4.503715087890625,-0.99517822265625,-0.077789306640625,0.0130462646484375
1714669055903789000,4.5137890625,-0.9957275390625,-0.076416015625,0.013092041015625
1714669055913862100,4.523862060546875,-0.9949493408203125,-0.0779876708984375,0.0109405517578125
1714669055923935200,4.533935302734375,-0.9970703125,-0.078399658203125,0.010040283203125
1714669055934008000,4.544008056640625,-0.996246337890625,-0.0784912109375,0.01025390625
1714669055944081200,4.5540810546875,-0.996673583984375,-0.077423095703125,0.0108795166015625
1714669055954154200,4.564154296875,-0.9981689453125,-0.078460693359375,0.009796142578125
1714669055964228000,4.57422802734375,-0.9971771240234375,-0.0770111083984375,0.008270263671875
1714669055974301200,4.58430126953125,-0.997802734375,-0.0775909423828125,0.007659912109375
1714669055984374000,4.5943740234375,-0.996734619140625,-0.07855224609375,0.00927734375
1714669055994447000,4.604447021484375,-0.9957275390625,-0.0775604248046875,0.0103912353515625
1714669056004520200,4.614520263671875,-0.995330810546875,-0.078094482421875,0.01165771484375
1714669056014593000,4.624593017578125,-0.996551513671875,-0.07843017578125,0.012176513671875
1714669056024666000,4.634666015625,-0.9950103759765625,-0.078094482421875,0.0111541748046875
1714669056034740200,4.644740234375,-0.996490478515625,-0.0780487060546875,0.0121917724609375
1714669056044813000,4.65481298828125,-0.9969940185546875,-0.07806396484375,0.01226806640625
1714669056054886100,4.66488623046875,-0.995452880859375,-0.0781097412109375,0.0117950439453125
1714669056064959000,4.674958984375,-0.996337890625,-0.0770416259765625,0.0109710693359375
1714669056075032300,4.6850322265625,-0.9944000244140625,-0.077117919921875,0.0111236572265625
1714669056085105200,4.695105224609375,-0.995208740234375,-0.077667236328125,0.0135040283203125
1714669056095179000,4.705178955078125,-0.99652099609375,-0.0785675048828125,0.0112762451171875
1714669056105252400,4.71525244140625,-0.9971160888671875,-0.0771484375,0.01080322265625
1714669056115325200,4.7253251953125,-0.994903564453125,-0.0765380859375,0.012847900390625
1714669056125398300,4.735398193359375,-0.9958038330078125,-0.0777435302734375,0.011322021484375
1714669056135471000,4.74547119140625,-0.99786376953125,-0.0778656005859375,0.01080322265625
1714669056145544000,4.7555439453125,-0.996368408203125,-0.0764617919921875,0.0105133056640625
1714669056155617300,4.7656171875,-0.99688720703125,-0.07867431640625,0.0113067626953125
1714669056165691100,4.775691162109375,-0.995208740234375,-0.078582763671875,0.009429931640625
1714669056175764000,4.785763916015625,-0.9962615966796875,-0.0765228271484375,0.009063720703125
1714669056185837300,4.79583740234375,-0.9971160888671875,-0.077667236328125,0.0095977783203125
1714669056195910100,4.80591015625,-0.9973602294921875,-0.078338623046875,0.0099029541015625
1714669056205983200,4.815983154296875,-0.99554443359375,-0.0786590576171875,0.0093994140625
1714669056216056000,4.82605615234375,-0.995208740234375,-0.078338623046875,0.01116943359375
1714669056226130200,4.836130126953125,-0.995513916015625,-0.0790557861328125,0.0115814208984375
1714669056236203300,4.846203369140625,-0.9948272705078125,-0.0785369873046875,0.0119171142578125
1714669056246276000,4.856276123046875,-0.994720458984375,-0.0787200927734375,0.0119781494140625
1714669056256349200,4.86634912109375,-0.9971771240234375,-0.0777587890625,0.011383056640625
1714669056266422300,4.87642236328125,-0.9976959228515625,-0.0785064697265625,0.011749267578125
1714669056276495000,4.8864951171875,-0.9969635009765625,-0.0768890380859375,0.0106964111328125
1714669056286568200,4.896568115234375,-0.9955596923828125,-0.0776824951171875,0.0103607177734375
1714669056296642000,4.90664208984375,-0.994659423828125,-0.078094482421875,0.0093231201171875
1714669056306715100,4.916715087890625,-0.9960479736328125,-0.0780487060546875,0.011016845703125
1714669056316788200,4.926788330078125,-0.9951171875,-0.0775299072265625,0.0118865966796875
1714669056326861000,4.936861083984375,-0.996612548828125,-0.0780487060546875,0.012359619140625
1714669056336934100,4.94693408203125,-0.9961090087890625,-0.077880859375,0.0109405517578125
1714669056347007000,4.957007080078125,-0.9972076416015625,-0.07769775390625,0.0112457275390625
1714669056357080300,4.967080322265625,-0.996307373046875,-0.0789337158203125,0.0097808837890625
1714669056367154200,4.977154296875,-0.99652099609375,-0.0777587890625,0.01043701171875
1714669056377227000,4.98722705078125,-0.996795654296875,-0.0782470703125,0.011505126953125
1714669056387300400,4.99730029296875,-0.9953765869140625,-0.0795440673828125,0.0118560791015625
1714669056397373200,5.007373291015625,-0.9956207275390625,-0.0779266357421875,0.010772705078125
1714669056407446300,5.0174462890625,-0.9963836669921875,-0.0766448974609375,0.0110321044921875
1714669056417519000,5.02751904296875,-0.9956207275390625,-0.0777740478515625,0.010833740234375
1714669056427593200,5.03759326171875,-0.9964752197265625,-0.0781402587890625,0.010986328125
1714669056437666300,5.047666259765625,-0.995391845703125,-0.0772705078125,0.0119781494140625
1714669056447739100,5.0577392578125,-0.9967803955078125,-0.07672119140625,0.0114898681640625
1714669056457812000,5.06781201171875,-0.996612548828125,-0.0772857666015625,0.011932373046875
1714669056467885300,5.07788525390625,-0.99609375,-0.077392578125,0.01275634765625
1714669056477958100,5.087958251953125,-0.9959564208984375,-0.07684326171875,0.0115966796875
1714669056488031500,5.098031494140625,-0.9951629638671875,-0.07818603515625,0.0118865966796875
1714669056498105300,5.108105224609375,-0.996246337890625,-0.0786895751953125,0.0120086669921875
1714669056508178200,5.11817822265625,-0.99713134765625,-0.0777587890625,0.0106658935546875
1714669056518251500,5.12825146484375,-0.995635986328125,-0.077850341796875,0.0115509033203125
1714669056528324400,5.138324462890625,-0.996307373046875,-0.077239990234375,0.011444091796875
1714669056538397400,5.1483974609375,-0.9958648681640625,-0.0769500732421875,0.011566162109375
1714669056548470300,5.15847021484375,-0.996826171875,-0.077392578125,0.01190185546875
1714669056558544400,5.16854443359375,-0.9965057373046875,-0.0777587890625,0.0115966796875
1714669056568617200,5.1786171875,-0.997314453125,-0.0785675048828125,0.012725830078125
1714669056578690300,5.188690185546875,-0.997283935546875,-0.0776824951171875,0.00933837890625
1714669056588763100,5.19876318359375,-0.9965362548828125,-0.078277587890625,0.0096588134765625
1714669056598836500,5.20883642578125,-0.995269775390625,-0.07745361328125,0.0102386474609375
1714669056608909300,5.218909423828125,-0.99591064453125,-0.07806396484375,0.0102081298828125
1714669056618982400,5.228982421875,-0.995086669921875,-0.0775146484375,0.0113677978515625
1714669056629056300,5.23905615234375,-0.996795654296875,-0.0776519775390625,0.0112762451171875
1714669056639129300,5.24912939453125,-0.9955596923828125,-0.0762939453125,0.01251220703125
1714669056649202400,5.259202392578125,-0.9966583251953125,-0.0775909423828125,0.01080322265625
1714669056659275300,5.269275146484375,-0.9956207275390625,-0.0780181884765625,0.01141357421875
1714669056669348400,5.279348388671875,-0.9948883056640625,-0.07843017578125,0.01025390625
1714669056679421400,5.28942138671875,-0.9960784912109375,-0.0776824951171875,0.01019287109375
1714669056689494300,5.299494384765625,-0.99786376953125,-0.07763671875,0.011627197265625
1714669056699568400,5.309568359375,-0.996490478515625,-0.0789947509765625,0.012176513671875
1714669056709641200,5.31964111328125,-0.99688720703125,-0.0779571533203125,0.0106964111328125
1714669056719714300,5.32971435546875,-0.996246337890625,-0.0769500732421875,0.0113372802734375
1714669056729787400,5.339787353515625,-0.9972076416015625,-0.078033447265625,0.0104827880859375
1714669056739860200,5.349860107421875,-0.9972381591796875,-0.0770111083984375,0.012908935546875
1714669056749933300,5.359933349609375,-0.997283935546875,-0.0774078369140625,0.0109100341796875
1714669056760007400,5.37000732421875,-0.996124267578125,-0.076904296875,0.0102691650390625
1714669056770080300,5.380080322265625,-0.996612548828125,-0.0781402587890625,0.0105438232421875
1714669056780153300,5.3901533203125,-0.9974212646484375,-0.0771484375,0.011871337890625
1714669056790226200,5.40022607421875,-0.9959564208984375,-0.0780792236328125,0.01318359375
1714669056800299500,5.410299560546875,-0.995391845703125,-0.075408935546875,0.0123138427734375
1714669056810372400,5.420372314453125,-0.995941162109375,-0.0774688720703125,0.01116943359375
1714669056820445200,5.430445068359375,-0.9959564208984375,-0.0784759521484375,0.0094451904296875
1714669056830519600,5.44051953125,-0.9953155517578125,-0.077850341796875,0.0111236572265625
1714669056840592400,5.45059228515625,-0.994537353515625,-0.077362060546875,0.010223388671875
1714669056850665200,5.460665283203125,-0.9960479736328125,-0.0776824951171875,0.01251220703125
1714669056860738300,5.47073828125,-0.9967803955078125,-0.077972412109375,0.0118408203125
1714669056870811100,5.48081103515625,-0.9964752197265625,-0.076904296875,0.01153564453125
1714669056880884500,5.490884521484375,-0.99505615234375,-0.0765380859375,0.0105133056640625
1714669056890958300,5.500958251953125,-0.9972076416015625,-0.0763397216796875,0.0119476318359375
1714669056901031200,5.51103125,-0.9967498779296875,-0.077239990234375,0.012481689453125
1714669056911104500,5.5211044921875,-0.995849609375,-0.0773773193359375,0.0112762451171875
1714669056921177300,5.53117724609375,-0.9954833984375,-0.078582763671875,0.0125274658203125
1714669056931250400,5.54125048828125,-0.9969482421875,-0.077117919921875,0.0124053955078125
1714669056941323300,5.5513232421875,-0.9965362548828125,-0.0778045654296875,0.011505126953125
1714669056951396400,5.561396240234375,-0.994415283203125,-0.078155517578125,0.010528564453125
1714669056961470500,5.571470458984375,-0.9960174560546875,-0.0767822265625,0.0095062255859375
1714669056971543300,5.581543212890625,-0.9956512451171875,-0.077911376953125,0.010833740234375
1714669056981616400,5.591616455078125,-0.9962310791015625,-0.0775299072265625,0.0101470947265625
1714669056991689200,5.601689208984375,-0.9970855712890625,-0.0772247314453125,0.01300048828125
1714669057001762300,5.61176220703125,-0.994964599609375,-0.0772552490234375,0.013671875
1714669057011835400,5.62183544921875,-0.995513916015625,-0.078155517578125,0.0122833251953125
1714669057021908200,5.631908203125,-0.9944305419921875,-0.076904296875,0.0113067626953125
1714669057031982300,5.641982421875,-0.9959869384765625,-0.07684326171875,0.0103607177734375
1714669057042055400,5.652055419921875,-0.995849609375,-0.07733154296875,0.0121612548828125
1714669057052128300,5.662128173828125,-0.996612548828125,-0.076995849609375,0.0108642578125
1714669057062201300,5.672201416015625,-0.9965972900390625,-0.0760040283203125,0.011627197265625
1714669057072274200,5.682274169921875,-0.994110107421875,-0.077484130859375,0.0108642578125
1714669057082347500,5.692347412109375,-0.995452880859375,-0.0790252685546875,0.011383056640625
1714669057092421400,5.70242138671875,-0.997222900390625,-0.0783538818359375,0.011383056640625
1714669057102494200,5.712494140625,-0.9945220947265625,-0.07830810546875,0.013031005859375
1714669057112567600,5.722567626953125,-0.9962921142578125,-0.07781982421875,0.011505126953125
1714669057122640400,5.732640380859375,-0.9955291748046875,-0.07855224609375,0.009521484375
1714669057132713200,5.742713134765625,-0.995513916015625,-0.078460693359375,0.0115966796875
1714669057142786300,5.752786376953125,-0.995361328125,-0.0776519775390625,0.0116424560546875
1714669057152859100,5.762859130859375,-0.9959564208984375,-0.0769500732421875,0.01190185546875
1714669057162933200,5.772933349609375,-0.996734619140625,-0.0780792236328125,0.0112457275390625
1714669057173006300,5.78300634765625,-0.995697021484375,-0.0775299072265625,0.0115203857421875
1714669057183079200,5.7930791015625,-0.99639892578125,-0.0771026611328125,0.012481689453125
1714669057193152500,5.803152587890625,-0.998443603515625,-0.0777587890625,0.011138916015625
1714669057203225300,5.813225341796875,-0.9962615966796875,-0.07843017578125,0.0118408203125
1714669057213298400,5.82329833984375,-0.9978179931640625,-0.07635498046875,0.0123291015625
1714669057223371300,5.833371337890625,-0.9974212646484375,-0.077728271484375,0.01165771484375
1714669057233445400,5.8434453125,-0.9954071044921875,-0.07769775390625,0.010650634765625
1714669057243518500,5.8535185546875,-0.9961090087890625,-0.077850341796875,0.01025390625
1714669057253591300,5.86359130859375,-0.9955596923828125,-0.077972412109375,0.0112152099609375
1714669057263664000,5.8736640625,-0.9962005615234375,-0.078155517578125,0.0120697021484375
1714669057273737500,5.883737548828125,-0.9963836669921875,-0.0773773193359375,0.01123046875
1714669057283810300,5.893810302734375,-0.9949493408203125,-0.0772705078125,0.0103607177734375
1714669057293884200,5.90388427734375,-0.9948272705078125,-0.0771636962890625,0.0123443603515625
1714669057303957200,5.913957275390625,-0.9963836669921875,-0.0767822265625,0.0124969482421875
1714669057314030300,5.9240302734375,-0.995635986328125,-0.0772705078125,0.00848388671875
1714669057324103400,5.934103515625,-0.9952392578125,-0.077880859375,0.010406494140625
1714669057334176300,5.94417626953125,-0.99688720703125,-0.0779266357421875,0.009918212890625
1714669057344249300,5.954249267578125,-0.9965057373046875,-0.077362060546875,0.0104522705078125
1714669057354322400,5.964322509765625,-0.994598388671875,-0.076080322265625,0.0097808837890625
1714669057364396300,5.974396240234375,-0.9968719482421875,-0.07672119140625,0.0126953125
1714669057374469400,5.984469482421875,-0.9961700439453125,-0.077545166015625,0.0121307373046875
1714669057384542200,5.994542236328125,-0.9951019287109375,-0.0773162841796875,0.0116729736328125
1714669057394615300,6.004615234375,-0.9961090087890625,-0.0785369873046875,0.0110931396484375
1714669057404688400,6.0146884765625,-0.997467041015625,-0.0769805908203125,0.0103912353515625
1714669057414761200,6.02476123046875,-0.9969940185546875,-0.076690673828125,0.012054443359375
1714669057424835300,6.03483544921875,-0.9947662353515625,-0.0774688720703125,0.0135650634765625
1714669057434908400,6.044908447265625,-0.99603271484375,-0.07720947265625,0.0108489990234375
1714669057444981200,6.054981201171875,-0.996063232421875,-0.0782928466796875,0.0121307373046875
1714669057455054300,6.065054443359375,-0.9969940185546875,-0.0777740478515625,0.012420654296875
1714669057465127200,6.075127197265625,-0.9958343505859375,-0.0779266357421875,0.0109100341796875
1714669057475200500,6.085200439453125,-0.9971923828125,-0.077789306640625,0.0119476318359375
1714669057485273300,6.0952734375,-0.9963531494140625,-0.0776519775390625,0.0107879638671875
1714669057495347700,6.10534765625,-0.99609375,-0.0782470703125,0.01165771484375
1714669057505420800,6.1154208984375,-0.9954071044921875,-0.0768890380859375,0.01141357421875
1714669057515494000,6.125493896484375,-0.997344970703125,-0.0759429931640625,0.01116943359375
1714669057525566700,6.135566650390625,-0.9939422607421875,-0.076934814453125,0.010833740234375
1714669057535639800,6.145639892578125,-0.9955596923828125,-0.0775146484375,0.0117950439453125
1714669057545712600,6.155712646484375,-0.99468994140625,-0.0782623291015625,0.011688232421875
1714669057555786000,6.165785888671875,-0.9962921142578125,-0.07769775390625,0.0103607177734375
1714669057565859800,6.17585986328125,-0.9959564208984375,-0.07794189453125,0.01080322265625
1714669057575932700,6.1859326171875,-0.995361328125,-0.0786895751953125,0.0116424560546875
1714669057586006000,6.196006103515625,-0.9948272705078125,-0.0766143798828125,0.011260986328125
1714669057596078800,6.206078857421875,-0.9944915771484375,-0.0779266357421875,0.0128021240234375
1714669057606152000,6.21615185546875,-0.9952850341796875,-0.07659912109375,0.011810302734375
1714669057616224800,6.226224853515625,-0.9952392578125,-0.077789306640625,0.011627197265625
1714669057626297600,6.236297607421875,-0.996612548828125,-0.077667236328125,0.0126495361328125
1714669057636372000,6.2463720703125,-0.995269775390625,-0.0770111083984375,0.011627197265625
1714669057646444800,6.25644482421875,-0.995849609375,-0.0766143798828125,0.012603759765625
1714669057656517600,6.266517578125,-0.99578857421875,-0.076873779296875,0.011474609375
1714669057666591000,6.276591064453125,-0.995330810546875,-0.0773773193359375,0.012115478515625
1714669057676663800,6.286663818359375,-0.996063232421875,-0.076995849609375,0.0133056640625
1714669057686737000,6.29673681640625,-0.996551513671875,-0.0777435302734375,0.0127105712890625
1714669057696810800,6.306810791015625,-0.996490478515625,-0.0777587890625,0.0106353759765625
1714669057706883800,6.3168837890625,-0.9953155517578125,-0.0765533447265625,0.0110626220703125
1714669057716957000,6.32695703125,-0.9971923828125,-0.0758056640625,0.010833740234375
1714669057727029800,6.33702978515625,-0.9968719482421875,-0.0771026611328125,0.0106658935546875
1714669057737102800,6.347102783203125,-0.9967498779296875,-0.07733154296875,0.0101776123046875
1714669057747176000,6.357176025390625,-0.9957122802734375,-0.0778045654296875,0.0110015869140625
1714669057757248800,6.367248779296875,-0.995330810546875,-0.0780487060546875,0.01141357421875
1714669057767323000,6.377322998046875,-0.9965972900390625,-0.076690673828125,0.0114593505859375
1714669057777395700,6.387395751953125,-0.996002197265625,-0.0784454345703125,0.01080322265625
1714669057787468800,6.39746875,-0.9973907470703125,-0.078338623046875,0.010040283203125
1714669057797542000,6.4075419921875,-0.994354248046875,-0.0765838623046875,0.0125579833984375
1714669057807614700,6.41761474609375,-0.9966278076171875,-0.0759124755859375,0.01348876953125
1714669057817687800,6.427687744140625,-0.9951934814453125,-0.076873779296875,0.010406494140625
1714669057827761000,6.437760986328125,-0.995269775390625,-0.0762939453125,0.0098876953125
1714669057837834800,6.447834716796875,-0.99603271484375,-0.0772705078125,0.01275634765625
1714669057847907800,6.457907958984375,-0.9954986572265625,-0.0767974853515625,0.01226806640625
1714669057857980700,6.467980712890625,-0.9951324462890625,-0.0782318115234375,0.0104827880859375
1714669057868054000,6.478053955078125,-0.995849609375,-0.0778045654296875,0.0114288330078125
1714669057878126800,6.488126953125,-0.9964447021484375,-0.076995849609375,0.0109100341796875
1714669057888199700,6.49819970703125,-0.997802734375,-0.0791015625,0.0108795166015625
1714669057898273800,6.508273681640625,-0.99676513671875,-0.0787353515625,0.0110931396484375
1714669057908347000,6.518346923828125,-0.997039794921875,-0.0790863037109375,0.0108795166015625
1714669057918419700,6.528419677734375,-0.997802734375,-0.0775146484375,0.0129852294921875
1714669057928492800,6.538492919921875,-0.9960784912109375,-0.0781707763671875,0.0133056640625
1714669057938565600,6.548565673828125,-0.99542236328125,-0.0782623291015625,0.01318359375
1714669057948639000,6.558638916015625,-0.995513916015625,-0.0784759521484375,0.011566162109375
1714669057958711800,6.5687119140625,-0.9961700439453125,-0.07684326171875,0.0102691650390625
1714669057968785700,6.57878564453125,-0.997711181640625,-0.0752410888671875,0.0108184814453125
1714669057978858800,6.588858642578125,-0.9959259033203125,-0.0765380859375,0.0113525390625
1714669057988931800,6.598931884765625,-0.9955902099609375,-0.0774383544921875,0.012359619140625
1714669057999005000,6.6090048828125,-0.9970550537109375,-0.0766754150390625,0.011810302734375
1714669058009077800,6.619077880859375,-0.99658203125,-0.0777435302734375,0.0123291015625
1714669058019150800,6.62915087890625,-0.995635986328125,-0.078643798828125,0.0096282958984375
1714669058029224000,6.639223876953125,-0.9956817626953125,-0.0769195556640625,0.01092529296875
1714669058039297800,6.6492978515625,-0.9958648681640625,-0.076019287109375,0.0122528076171875
1714669058049371000,6.659370849609375,-0.9966583251953125,-0.077850341796875,0.0123443603515625
1714669058059443700,6.669443603515625,-0.995819091796875,-0.0772705078125,0.0108642578125
1714669058069516800,6.679516845703125,-0.9952545166015625,-0.07666015625,0.0101318359375
1714669058079590000,6.68958984375,-0.9973297119140625,-0.0774383544921875,0.0104522705078125
1714669058089662700,6.699662841796875,-0.9953155517578125,-0.07708740234375,0.011688232421875
1714669058099735800,6.70973583984375,-0.994049072265625,-0.076507568359375,0.010650634765625
1714669058109810000,6.719809814453125,-0.9967193603515625,-0.0781707763671875,0.0119171142578125
1714669058119882800,6.7298828125,-0.9966583251953125,-0.077239990234375,0.01025390625
1714669058129955800,6.739955810546875,-0.9957733154296875,-0.077239990234375,0.0118408203125
1714669058140028700,6.750028564453125,-0.9964141845703125,-0.0779266357421875,0.0109100341796875
1714669058150102000,6.76010205078125,-0.993896484375,-0.0772705078125,0.0101470947265625
1714669058160174800,6.7701748046875,-0.995880126953125,-0.0774078369140625,0.0104522705078125
1714669058170248700,6.780248779296875,-0.9962158203125,-0.07574462890625,0.011383056640625
1714669058180322000,6.790322021484375,-0.99609375,-0.077301025390625,0.011871337890625
1714669058190395000,6.800394775390625,-0.9964447021484375,-0.0773468017578125,0.0107574462890625
1714669058200467700,6.8104677734375,-0.996002197265625,-0.078826904296875,0.01141357421875
1714669058210540800,6.820540771484375,-0.99462890625,-0.0780792236328125,0.0102691650390625
1714669058220613600,6.830613525390625,-0.994781494140625,-0.0773468017578125,0.012481689453125
1714669058230687000,6.84068701171875,-0.997528076171875,-0.0772247314453125,0.0111846923828125
1714669058240760800,6.8507607421875,-0.99566650390625,-0.0770263671875,0.010650634765625
1714669058250833700,6.860833740234375,-0.9967498779296875,-0.0777740478515625,0.0121307373046875
1714669058260907000,6.870906982421875,-0.99749755859375,-0.0767822265625,0.0115203857421875
1714669058270979800,6.880979736328125,-0.99658203125,-0.0791015625,0.00994873046875
1714669058281053000,6.891052978515625,-0.9960479736328125,-0.076995849609375,0.0118255615234375
1714669058291125800,6.901125732421875,-0.9962615966796875,-0.077911376953125,0.010528564453125
1714669058301198800,6.91119873046875,-0.9952850341796875,-0.078125,0.0114898681640625
1714669058311273000,6.92127294921875,-0.996124267578125,-0.0780181884765625,0.01055908203125
1714669058321345800,6.931345703125,-0.9950408935546875,-0.077423095703125,0.011260986328125
1714669058331419000,6.9414189453125,-0.996063232421875,-0.0781707763671875,0.0116729736328125
1714669058341492000,6.951491943359375,-0.997222900390625,-0.0776824951171875,0.0124664306640625
1714669058351564800,6.961564697265625,-0.995330810546875,-0.077667236328125,0.0118865966796875
1714669058361638000,6.971637939453125,-0.9948272705078125,-0.0779571533203125,0.01202392578125
1714669058371710700,6.981710693359375,-0.9958343505859375,-0.077789306640625,0.0129241943359375
1714669058381784800,6.991784912109375,-0.9950103759765625,-0.078277587890625,0.0127716064453125
1714669058391858000,7.00185791015625,-0.99700927734375,-0.0769500732421875,0.0101470947265625
1714669058401930800,7.0119306640625,-0.99755859375,-0.077392578125,0.0104217529296875
1714669058412003800,7.02200390625,-0.9962158203125,-0.079071044921875,0.0102081298828125
1714669058422077000,7.032076904296875,-0.995391845703125,-0.077423095703125,0.0103912353515625
1714669058432149800,7.042149658203125,-0.9959869384765625,-0.077972412109375,0.01080322265625
1714669058442223900,7.052223876953125,-0.9963836669921875,-0.077239990234375,0.0106353759765625
1714669058452296700,7.062296630859375,-0.996185302734375,-0.0771636962890625,0.01190185546875
1714669058462369800,7.072369873046875,-0.9957275390625,-0.0767822265625,0.010955810546875
1714669058472443000,7.08244287109375,-0.9956512451171875,-0.078155517578125,0.0099334716796875
1714669058482515700,7.092515625,-0.994415283203125,-0.078277587890625,0.0094451904296875
1714669058492588500,7.102588623046875,-0.995208740234375,-0.0782470703125,0.00927734375
1714669058502661400,7.112661376953125,-0.9960479736328125,-0.0773162841796875,0.0129547119140625
1714669058512735500,7.122735595703125,-0.99591064453125,-0.0776519775390625,0.0108184814453125
1714669058522808600,7.13280859375,-0.997406005859375,-0.0762176513671875,0.0119476318359375
1714669058532881400,7.14288134765625,-0.995880126953125,-0.0769805908203125,0.0106964111328125
1714669058542954500,7.15295458984375,-0.995269775390625,-0.07855224609375,0.012725830078125
1714669058553027600,7.163027587890625,-0.9961090087890625,-0.0778656005859375,0.010955810546875
1714669058563100700,7.1731005859375,-0.9962158203125,-0.07733154296875,0.01031494140625
1714669058573173500,7.183173583984375,-0.9962921142578125,-0.077423095703125,0.0107269287109375
1714669058583247400,7.193247314453125,-0.995391845703125,-0.075714111328125,0.011993408203125
1714669058593320700,7.20332080078125,-0.9957122802734375,-0.077850341796875,0.0120849609375
1714669058603393500,7.2133935546875,-0.9965972900390625,-0.0786895751953125,0.011810302734375
1714669058613466600,7.223466552734375,-0.9959564208984375,-0.077423095703125,0.0118408203125
1714669058623539500,7.23353955078125,-0.995758056640625,-0.0769500732421875,0.0116119384765625
1714669058633612500,7.243612548828125,-0.996429443359375,-0.07666015625,0.012420654296875
1714669058643685600,7.253685546875,-0.995361328125,-0.076324462890625,0.0122833251953125
1714669058653759500,7.263759521484375,-0.99456787109375,-0.078399658203125,0.0121002197265625
1714669058663832300,7.273832275390625,-0.9950714111328125,-0.07843017578125,0.0122222900390625
1714669058673905700,7.28390576171875,-0.9965362548828125,-0.0767364501953125,0.01239013671875
1714669058683978500,7.293978515625,-0.9955596923828125,-0.07794189453125,0.011474609375
1714669058694051600,7.304051513671875,-0.9952850341796875,-0.078521728515625,0.0131988525390625
1714669058704124400,7.31412451171875,-0.9970703125,-0.07696533203125,0.0125274658203125
1714669058714197800,7.32419775390625,-0.996673583984375,-0.0781402587890625,0.01104736328125
1714669058724271600,7.334271728515625,-0.995697021484375,-0.0779266357421875,0.0109405517578125
1714669058734344400,7.344344482421875,-0.995880126953125,-0.0776214599609375,0.01068115234375
1714669058744417500,7.35441748046875,-0.995452880859375,-0.0765838623046875,0.0119171142578125
1714669058754490600,7.36449072265625,-0.99468994140625,-0.0765838623046875,0.0124359130859375
1714669058764563500,7.3745634765625,-0.996978759765625,-0.0771636962890625,0.0128173828125
1714669058774636500,7.384636474609375,-0.9959869384765625,-0.0770416259765625,0.011871337890625
1714669058784709400,7.39470947265625,-0.9964447021484375,-0.0776519775390625,0.0113372802734375
1714669058794783500,7.404783447265625,-0.9967041015625,-0.077484130859375,0.012237548828125
1714669058804856600,7.414856689453125,-0.9955902099609375,-0.076202392578125,0.0116119384765625
1714669058814929400,7.424929443359375,-0.995269775390625,-0.0765533447265625,0.010986328125
1714669058825002500,7.43500244140625,-0.994659423828125,-0.0787353515625,0.0120086669921875
1714669058835075600,7.44507568359375,-0.9966583251953125,-0.0773468017578125,0.011505126953125
1714669058845148700,7.455148681640625,-0.995330810546875,-0.0774688720703125,0.0091400146484375
1714669058855222500,7.465222412109375,-0.996185302734375,-0.0764007568359375,0.01263427734375
1714669058865295600,7.475295654296875,-0.996856689453125,-0.076385498046875,0.0127716064453125
1714669058875368700,7.48536865234375,-0.995697021484375,-0.07830810546875,0.01165771484375
1714669058885441500,7.495441650390625,-0.9960174560546875,-0.0785675048828125,0.0118865966796875
1714669058895514400,7.505514404296875,-0.99658203125,-0.0773773193359375,0.0129547119140625
1714669058905587500,7.51558740234375,-0.9971160888671875,-0.07818603515625,0.010894775390625
1714669058915660500,7.52566064453125,-0.9964447021484375,-0.0765838623046875,0.010406494140625
1714669058925734400,7.535734375,-0.9969635009765625,-0.0773468017578125,0.01092529296875
1714669058935807500,7.545807373046875,-0.9974212646484375,-0.0779571533203125,0.0106964111328125
1714669058945880300,7.55588037109375,-0.9954681396484375,-0.0781707763671875,0.01123046875
1714669058955953700,7.56595361328125,-0.995269775390625,-0.07757568359375,0.010589599609375
1714669058966026500,7.576026611328125,-0.9973297119140625,-0.0765228271484375,0.0119476318359375
1714669058976099600,7.586099609375,-0.99566650390625,-0.07598876953125,0.011566162109375
1714669058986172400,7.59617236328125,-0.997283935546875,-0.0769500732421875,0.010223388671875
1714669058996246500,7.60624658203125,-0.995697021484375,-0.0775146484375,0.0103759765625
1714669059006319600,7.616319580078125,-0.99664306640625,-0.077728271484375,0.0107879638671875
1714669059016392400,7.626392333984375,-0.9969940185546875,-0.076141357421875,0.0115509033203125
1714669059026465500,7.636465576171875,-0.99456787109375,-0.077362060546875,0.0112762451171875
1714669059036538600,7.64653857421875,-0.9968719482421875,-0.078826904296875,0.010345458984375
1714669059046611500,7.656611572265625,-0.9963836669921875,-0.0779876708984375,0.0121307373046875
1714669059056684500,7.6666845703125,-0.995361328125,-0.078277587890625,0.0122833251953125
1714669059066758700,7.676758544921875,-0.9949188232421875,-0.07806396484375,0.010345458984375
1714669059076831500,7.68683154296875,-0.995361328125,-0.0761871337890625,0.011566162109375
1714669059086904600,7.696904541015625,-0.996917724609375,-0.0772857666015625,0.010498046875
1714669059096977400,7.706977294921875,-0.9944305419921875,-0.07708740234375,0.0120697021484375
1714669059107050500,7.717050537109375,-0.994964599609375,-0.0771636962890625,0.0111846923828125
1714669059117123600,7.72712353515625,-0.9967498779296875,-0.0778045654296875,0.0104827880859375
1714669059127196700,7.73719677734375,-0.9964752197265625,-0.0774993896484375,0.0104522705078125
1714669059137270500,7.7472705078125,-0.9957122802734375,-0.07720947265625,0.0117950439453125
1714669059147343600,7.757343505859375,-0.9958343505859375,-0.0765380859375,0.0118408203125
1714669059157416700,7.767416748046875,-0.9973907470703125,-0.0770263671875,0.011444091796875
1714669059167489500,7.777489501953125,-0.9954833984375,-0.0777435302734375,0.00958251953125
1714669059177562400,7.787562255859375,-0.9954071044921875,-0.076904296875,0.0110931396484375
1714669059187635500,7.797635498046875,-0.9957122802734375,-0.0767974853515625,0.0134124755859375
1714669059197708500,7.80770849609375,-0.996795654296875,-0.07781982421875,0.0108489990234375
1714669059207782400,7.817782470703125,-0.9954376220703125,-0.0769805908203125,0.011444091796875
1714669059217855500,7.82785546875,-0.9967193603515625,-0.077911376953125,0.009979248046875
1714669059227928600,7.837928466796875,-0.9960784912109375,-0.0782928466796875,0.0115814208984375
1714669059238001700,7.848001708984375,-0.9954376220703125,-0.076446533203125,0.0123748779296875
1714669059248074500,7.858074462890625,-0.996307373046875,-0.07830810546875,0.01171875
1714669059258147600,7.868147705078125,-0.9964141845703125,-0.0767822265625,0.0112152099609375
1714669059268221700,7.8782216796875,-0.996612548828125,-0.077423095703125,0.01190185546875
1714669059278294500,7.88829443359375,-0.9957427978515625,-0.078582763671875,0.0117034912109375
1714669059288367600,7.89836767578125,-0.9952850341796875,-0.0770263671875,0.0117950439453125
1714669059298440400,7.9084404296875,-0.9965972900390625,-0.079132080078125,0.0126953125
1714669059308513500,7.918513427734375,-0.99609375,-0.078094482421875,0.0114288330078125
1714669059318586600,7.928586669921875,-0.99560546875,-0.0783843994140625,0.0100250244140625
1714669059328659500,7.938659423828125,-0.9958953857421875,-0.0760498046875,0.011383056640625
1714669059338733300,7.9487333984375,-0.997222900390625,-0.0775909423828125,0.0115509033203125
1714669059348806700,7.958806640625,-0.9955902099609375,-0.0777587890625,0.0105133056640625
1714669059358879500,7.96887939453125,-0.994781494140625,-0.0770263671875,0.0114898681640625
1714669059368952600,7.97895263671875,-0.9959869384765625,-0.07806396484375,0.0117340087890625
1714669059379025400,7.989025390625,-0.9957122802734375,-0.0782928466796875,0.0099639892578125
1714669059389098800,7.9990986328125,-0.995208740234375,-0.0767822265625,0.0118255615234375
1714669059399171600,8.009171630859376,-0.995391845703125,-0.077850341796875,0.011627197265625
1714669059409245400,8.019245361328124,-0.99639892578125,-0.0782928466796875,0.011444091796875
1714669059419318500,8.029318603515625,-0.9962158203125,-0.077911376953125,0.0107879638671875
1714669059429391600,8.0393916015625,-0.997161865234375,-0.0789031982421875,0.0108795166015625
1714669059439464400,8.04946435546875,-0.994537353515625,-0.0787506103515625,0.0107421875
1714669059449537500,8.05953759765625,-0.995452880859375,-0.07818603515625,0.00994873046875
1714669059459610400,8.0696103515625,-0.995513916015625,-0.07830810546875,0.010589599609375
1714669059469683700,8.07968359375,-0.99578857421875,-0.07720947265625,0.011260986328125
1714669059479757600,8.089757568359374,-0.9946746826171875,-0.0775299072265625,0.0113983154296875
1714669059489830700,8.09983056640625,-0.996246337890625,-0.076324462890625,0.01043701171875
1714669059499903700,8.10990380859375,-0.9972991943359375,-0.077484130859375,0.010650634765625
1714669059509976600,8.1199765625,-0.99615478515625,-0.0775604248046875,0.010498046875
1714669059520049700,8.130049560546874,-0.9951629638671875,-0.0775146484375,0.0109710693359375
1714669059530122800,8.140122802734375,-0.996490478515625,-0.0772247314453125,0.010894775390625
1714669059540195600,8.150195556640625,-0.99639892578125,-0.077850341796875,0.0095367431640625
1714669059550269700,8.160269775390624,-0.9957275390625,-0.0787353515625,0.012115478515625
1714669059560342500,8.170342529296875,-0.9959564208984375,-0.0782318115234375,0.0105743408203125
1714669059570415600,8.18041552734375,-0.9963836669921875,-0.075592041015625,0.0127716064453125
1714669059580488700,8.19048876953125,-0.996734619140625,-0.0768890380859375,0.011016845703125
1714669059590561500,8.2005615234375,-0.996307373046875,-0.0783843994140625,0.0096435546875
1714669059600634600,8.210634521484375,-0.995147705078125,-0.079345703125,0.0118865966796875
1714669059610707700,8.220707763671875,-0.9959564208984375,-0.0777587890625,0.01190185546875
1714669059620781600,8.230781494140626,-0.995574951171875,-0.077056884765625,0.01007080078125
1714669059630854700,8.240854736328124,-0.9953155517578125,-0.076995849609375,0.0108184814453125
1714669059640927500,8.250927490234375,-0.99542236328125,-0.0761871337890625,0.01141357421875
1714669059651000800,8.261000732421875,-0.9959869384765625,-0.0775299072265625,0.0114898681640625
1714669059661073700,8.27107373046875,-0.998046875,-0.0777435302734375,0.012603759765625
1714669059671146800,8.281146728515624,-0.9936065673828125,-0.078582763671875,0.012237548828125
1714669059681219600,8.291219482421875,-0.9964141845703125,-0.077911376953125,0.011566162109375
1714669059691293700,8.301293701171875,-0.996246337890625,-0.078277587890625,0.010467529296875
1714669059701366800,8.31136669921875,-0.9964599609375,-0.077056884765625,0.0113372802734375
1714669059711439600,8.321439697265625,-0.9958953857421875,-0.0784149169921875,0.0109710693359375
1714669059721512400,8.331512451171875,-0.995208740234375,-0.0783538818359375,0.0113372802734375
1714669059731585800,8.341585693359375,-0.9954681396484375,-0.0773162841796875,0.01104736328125
1714669059741658600,8.35165869140625,-0.9974212646484375,-0.0776214599609375,0.0107879638671875
1714669059751731700,8.361731689453125,-0.9951019287109375,-0.0777435302734375,0.0098724365234375
1714669059761805800,8.371805908203125,-0.99609375,-0.0774688720703125,0.0113372802734375
1714669059771878700,8.381878662109376,-0.996429443359375,-0.076507568359375,0.0107269287109375
1714669059781951700,8.39195166015625,-0.9960784912109375,-0.0770416259765625,0.01055908203125
1714669059792024600,8.402024658203125,-0.99603271484375,-0.076904296875,0.01019287109375
1714669059802097700,8.41209765625,-0.996612548828125,-0.076812744140625,0.0093994140625
1714669059812170800,8.422170654296876,-0.9955902099609375,-0.0784454345703125,0.0136260986328125
1714669059822243600,8.43224365234375,-0.995849609375,-0.0783843994140625,0.0122222900390625
1714669059832317700,8.442317626953125,-0.9967041015625,-0.0766448974609375,0.012969970703125
1714669059842390500,8.452390625,-0.99481201171875,-0.077362060546875,0.0109100341796875
1714669059852463600,8.462463623046874,-0.9943389892578125,-0.07867431640625,0.01123046875
1714669059862536700,8.47253662109375,-0.9961700439453125,-0.0772857666015625,0.0102996826171875
1714669059872609500,8.482609619140625,-0.995391845703125,-0.078033447265625,0.0115814208984375
1714669059882682600,8.4926826171875,-0.99627685546875,-0.078125,0.011077880859375
1714669059892755700,8.502755615234374,-0.996917724609375,-0.0781097412109375,0.0086212158203125
1714669059902829600,8.51282958984375,-0.9969635009765625,-0.0790557861328125,0.0101318359375
1714669059912902700,8.522902587890625,-0.995513916015625,-0.0782470703125,0.0113372802734375
1714669059922975500,8.5329755859375,-0.99591064453125,-0.0786590576171875,0.010589599609375
1714669059933048800,8.543048828125,-0.9958648681640625,-0.077178955078125,0.0107879638671875
1714669059943121700,8.55312158203125,-0.9972076416015625,-0.0782928466796875,0.0100860595703125
1714669059953194500,8.563194580078125,-0.9951019287109375,-0.0782928466796875,0.011138916015625
1714669059963268900,8.573268798828124,-0.9958038330078125,-0.07769775390625,0.011322021484375
1714669059973341700,8.583341796875,-0.9959564208984375,-0.07708740234375,0.0110015869140625
1714669059983414500,8.59341455078125,-0.9951019287109375,-0.076690673828125,0.0094146728515625
1714669059993487600,8.603487548828125,-0.9960784912109375,-0.077728271484375,0.010467529296875
1714669060003560400,8.613560546875,-0.994903564453125,-0.07635498046875,0.010467529296875
1714669060013633800,8.6236337890625,-0.9964141845703125,-0.0772552490234375,0.0106201171875
1714669060023706600,8.63370654296875,-0.9951324462890625,-0.0767669677734375,0.01177978515625
1714669060033780500,8.643780517578126,-0.9956512451171875,-0.078826904296875,0.012603759765625
1714669060043853800,8.653853759765624,-0.9964447021484375,-0.077911376953125,0.01123046875
1714669060053926700,8.6639267578125,-0.9966583251953125,-0.07684326171875,0.0097808837890625
1714669060063999700,8.673999755859375,-0.9946746826171875,-0.0782318115234375,0.0106048583984375
1714669060074072600,8.684072509765626,-0.99554443359375,-0.077728271484375,0.00982666015625
1714669060084145700,8.694145751953124,-0.99725341796875,-0.0774078369140625,0.010589599609375
1714669060094218800,8.70421875,-0.9966888427734375,-0.077972412109375,0.00982666015625
1714669060104292600,8.714292724609376,-0.99505615234375,-0.07720947265625,0.0108642578125
1714669060114365700,8.72436572265625,-0.9961395263671875,-0.0782470703125,0.0096893310546875
1714669060124438800,8.734438720703125,-0.9967498779296875,-0.0780792236328125,0.0113067626953125
1714669060134511600,8.74451171875,-0.9965972900390625,-0.078765869140625,0.011016845703125
1714669060144584700,8.754584716796876,-0.9969329833984375,-0.07916259765625,0.0102691650390625
1714669060154657500,8.764657470703124,-0.99664306640625,-0.0763702392578125,0.011199951171875
1714669060164730600,8.774730712890625,-0.995086669921875,-0.0781402587890625,0.011627197265625
1714669060174804700,8.7848046875,-0.9960784912109375,-0.0769500732421875,0.0107879638671875
1714669060184877600,8.794877685546876,-0.995269775390625,-0.0782012939453125,0.0107421875
1714669060194950700,8.80495068359375,-0.9957275390625,-0.0775909423828125,0.0100555419921875
1714669060205023700,8.815023681640625,-0.99481201171875,-0.0767364501953125,0.0098114013671875
1714669060215096800,8.825096923828125,-0.996490478515625,-0.07720947265625,0.0125732421875
1714669060225169700,8.835169677734376,-0.995391845703125,-0.079315185546875,0.0097503662109375
1714669060235242500,8.845242431640624,-0.9954681396484375,-0.077301025390625,0.011505126953125
1714669060245316900,8.85531689453125,-0.9959869384765625,-0.07794189453125,0.012664794921875
1714669060255389700,8.8653896484375,-0.9969635009765625,-0.078338623046875,0.0098724365234375
1714669060265462500,8.875462646484374,-0.99603271484375,-0.0774383544921875,0.00946044921875
1714669060275535600,8.88553564453125,-0.996826171875,-0.0768280029296875,0.0110931396484375
1714669060285608700,8.895608642578125,-0.9961090087890625,-0.07769775390625,0.009979248046875
1714669060295681800,8.905681884765626,-0.996978759765625,-0.0796966552734375,0.01104736328125
1714669060305754600,8.915754638671874,-0.9971771240234375,-0.07733154296875,0.0134124755859375
1714669060315828500,8.925828369140625,-0.995147705078125,-0.0785064697265625,0.0102691650390625
1714669060325901800,8.93590185546875,-0.9964447021484375,-0.07818603515625,0.0113372802734375
1714669060335974700,8.945974609375,-0.995574951171875,-0.076507568359375,0.011566162109375
1714669060346047700,8.9560478515625,-0.99517822265625,-0.0777435302734375,0.01153564453125
1714669060356120600,8.96612060546875,-0.996246337890625,-0.077239990234375,0.011688232421875
1714669060366193700,8.976193603515625,-0.9963226318359375,-0.0760650634765625,0.0115814208984375
1714669060376266800,8.986266845703126,-0.9965362548828125,-0.0770263671875,0.0106048583984375
1714669060386340600,8.996340576171875,-0.99578857421875,-0.0778961181640625,0.009674072265625
1714669060396413400,9.006413330078125,-0.996002197265625,-0.077545166015625,0.0096282958984375
1714669060406486800,9.01648681640625,-0.99462890625,-0.0772247314453125,0.0112762451171875
1714669060416559600,9.0265595703125,-0.99505615234375,-0.0768585205078125,0.0121307373046875
1714669060426632700,9.0366328125,-0.995880126953125,-0.0773468017578125,0.0115814208984375
1714669060436705500,9.04670556640625,-0.9952545166015625,-0.07733154296875,0.0121307373046875
1714669060446779000,9.05677880859375,-0.9962005615234375,-0.0777587890625,0.0108489990234375
1714669060456852700,9.066852783203124,-0.9961700439453125,-0.078338623046875,0.01129150390625
1714669060466925600,9.076925537109375,-0.9956817626953125,-0.07708740234375,0.0121002197265625
1714669060476998700,9.08699853515625,-0.9972076416015625,-0.0778350830078125,0.010345458984375
1714669060487071700,9.09707177734375,-0.9958648681640625,-0.0781097412109375,0.010040283203125
1714669060497145300,9.107145263671875,-0.996185302734375,-0.0776519775390625,0.008819580078125
1714669060507218400,9.117218505859375,-0.9958038330078125,-0.077484130859375,0.012054443359375
1714669060517291300,9.127291259765625,-0.99560546875,-0.077178955078125,0.0120086669921875
1714669060527365400,9.137365478515624,-0.994964599609375,-0.0774383544921875,0.01104736328125
1714669060537438500,9.1474384765625,-0.9955596923828125,-0.07745361328125,0.0103912353515625
1714669060547511300,9.15751123046875,-0.9962158203125,-0.07769775390625,0.0112762451171875
1714669060557584600,9.167584716796876,-0.996734619140625,-0.0767364501953125,0.011566162109375
1714669060567657500,9.177657470703124,-0.995941162109375,-0.0784454345703125,0.0105743408203125
1714669060577730300,9.187730224609375,-0.997100830078125,-0.07757568359375,0.0122222900390625
1714669060587803400,9.197803466796875,-0.9946136474609375,-0.0785675048828125,0.0117034912109375
1714669060597877500,9.20787744140625,-0.9968719482421875,-0.078033447265625,0.0106353759765625
1714669060607950300,9.217950439453125,-0.9962615966796875,-0.07684326171875,0.01104736328125
1714669060618023400,9.2280234375,-0.9969329833984375,-0.076507568359375,0.009521484375
1714669060628096300,9.23809619140625,-0.996124267578125,-0.0769500732421875,0.01123046875
1714669060638169300,9.24816943359375,-0.994873046875,-0.07781982421875,0.0117645263671875
1714669060648242400,9.258242431640625,-0.994537353515625,-0.07806396484375,0.011383056640625
1714669060658315500,9.2683154296875,-0.9960479736328125,-0.0785064697265625,0.0112152099609375
1714669060668389400,9.278389404296876,-0.99456787109375,-0.0776214599609375,0.01153564453125
1714669060678462500,9.28846240234375,-0.9954833984375,-0.077728271484375,0.0098114013671875
1714669060688535600,9.29853564453125,-0.9957275390625,-0.077484130859375,0.0101470947265625
1714669060698608400,9.3086083984375,-0.9956817626953125,-0.07763671875,0.0106048583984375
1714669060708681500,9.318681396484376,-0.9958953857421875,-0.077789306640625,0.0113983154296875
1714669060718754300,9.32875439453125,-0.9955291748046875,-0.0787200927734375,0.0103302001953125
1714669060728827400,9.338827392578125,-0.9966888427734375,-0.0770416259765625,0.009674072265625
1714669060738901500,9.348901611328126,-0.9949798583984375,-0.076019287109375,0.011932373046875
1714669060748974300,9.358974365234374,-0.994293212890625,-0.0773773193359375,0.012359619140625
1714669060759047400,9.36904736328125,-0.996795654296875,-0.07769775390625,0.012115478515625
1714669060769120500,9.37912060546875,-0.9979705810546875,-0.0775146484375,0.0112152099609375
1714669060779193300,9.389193359375,-0.9964141845703125,-0.0770111083984375,0.01104736328125
1714669060789266400,9.399266357421874,-0.9949798583984375,-0.07684326171875,0.0110321044921875
1714669060799339300,9.40933935546875,-0.995574951171875,-0.0773468017578125,0.0121307373046875
1714669060809413400,9.419413330078125,-0.9952850341796875,-0.0777587890625,0.01068115234375
1714669060819486500,9.429486572265626,-0.9947662353515625,-0.077667236328125,0.0117034912109375
1714669060829559300,9.439559326171874,-0.9966278076171875,-0.0753936767578125,0.0111083984375
1714669060839632400,9.44963232421875,-0.9987945556640625,-0.0773162841796875,0.010894775390625
1714669060849705500,9.45970556640625,-0.9950103759765625,-0.0772857666015625,0.01025390625
1714669060859778300,9.4697783203125,-0.9965057373046875,-0.0758819580078125,0.0111846923828125
1714669060869851400,9.479851318359374,-0.9970855712890625,-0.0767059326171875,0.011962890625
1714669060879925500,9.489925537109375,-0.995574951171875,-0.077728271484375,0.0114288330078125
1714669060889998300,9.499998291015626,-0.9957733154296875,-0.07745361328125,0.010955810546875
1714669060900071400,9.510071533203124,-0.9965667724609375,-0.0778656005859375,0.009796142578125
1714669060910144300,9.520144287109375,-0.9962921142578125,-0.0774688720703125,0.0105133056640625
1714669060920217600,9.530217529296875,-0.99664306640625,-0.0776519775390625,0.011566162109375
1714669060930290400,9.54029052734375,-0.9972381591796875,-0.0779876708984375,0.0127105712890625
1714669060940363500,9.550363525390624,-0.994781494140625,-0.0763702392578125,0.01312255859375
1714669060950437400,9.560437255859375,-0.996185302734375,-0.07708740234375,0.0124969482421875
1714669060960510500,9.570510498046875,-0.9957275390625,-0.0773773193359375,0.01165771484375
1714669060970583600,9.58058349609375,-0.9959869384765625,-0.0760650634765625,0.010986328125
1714669060980656400,9.590656494140624,-0.995697021484375,-0.076202392578125,0.0120849609375
1714669060990729200,9.600729248046875,-0.9951019287109375,-0.0764923095703125,0.011138916015625
1714669061000802600,9.610802490234375,-0.99554443359375,-0.0777740478515625,0.0107269287109375
1714669061010875400,9.62087548828125,-0.99658203125,-0.0775909423828125,0.0107574462890625
1714669061020949200,9.63094921875,-0.9956817626953125,-0.077178955078125,0.0101165771484375
1714669061031022300,9.641022216796875,-0.9953155517578125,-0.0780029296875,0.0118560791015625
1714669061041095400,9.651095458984376,-0.996490478515625,-0.0764923095703125,0.0123291015625
1714669061051168500,9.66116845703125,-0.995849609375,-0.0770263671875,0.00897216796875
1714669061061241300,9.671241455078125,-0.9959716796875,-0.0757598876953125,0.010986328125
1714669061071314400,9.681314453125,-0.9962310791015625,-0.0774993896484375,0.0104827880859375
1714669061081387500,9.691387451171876,-0.996673583984375,-0.0764312744140625,0.0095367431640625
1714669061091461400,9.70146142578125,-0.9951934814453125,-0.0777740478515625,0.0098114013671875
1714669061101534500,9.711534423828125,-0.995697021484375,-0.0776519775390625,0.0099639892578125
1714669061111607300,9.721607177734375,-0.9967498779296875,-0.0766448974609375,0.010498046875
1714669061121680400,9.731680419921876,-0.9969482421875,-0.0772857666015625,0.010406494140625
1714669061131753500,9.74175341796875,-0.996002197265625,-0.0781707763671875,0.00933837890625
1714669061141826300,9.751826416015625,-0.9964752197265625,-0.0781097412109375,0.010284423828125
1714669061151899400,9.7618994140625,-0.99652099609375,-0.07598876953125,0.0102386474609375
1714669061161973500,9.771973388671874,-0.996734619140625,-0.07696533203125,0.01104736328125
1714669061172046300,9.78204638671875,-0.9971923828125,-0.0771331787109375,0.0097503662109375
1714669061182119400,9.792119384765625,-0.99700927734375,-0.0759429931640625,0.009307861328125
1714669061192192300,9.802192138671876,-0.9971466064453125,-0.0761566162109375,0.0110931396484375
1714669061202265600,9.812265625,-0.997283935546875,-0.0776519775390625,0.011505126953125
1714669061212338400,9.82233837890625,-0.996002197265625,-0.076507568359375,0.01116943359375
1714669061222411500,9.83241162109375,-0.996246337890625,-0.077239990234375,0.010772705078125
1714669061232485400,9.8424853515625,-0.996185302734375,-0.078125,0.0106658935546875
1714669061242558500,9.852558349609374,-0.996337890625,-0.0772552490234375,0.0113525390625
1714669061252631600,9.862631591796875,-0.9948883056640625,-0.0774993896484375,0.011474609375
1714669061262704400,9.872704345703125,-0.9959716796875,-0.07745361328125,0.0101470947265625
1714669061272777200,9.882777099609376,-0.997528076171875,-0.0771484375,0.01141357421875
1714669061282850600,9.8928505859375,-0.9957427978515625,-0.07781982421875,0.0100555419921875
1714669061292923400,9.90292333984375,-0.9971771240234375,-0.0787506103515625,0.0142364501953125
1714669061302997200,9.912997314453126,-0.9962921142578125,-0.07708740234375,0.0112152099609375
1714669061313070300,9.9230703125,-0.9974365234375,-0.0777130126953125,0.011383056640625
1714669061323143400,9.933143310546875,-0.9957122802734375,-0.0771026611328125,0.0117340087890625
1714669061333216500,9.943216552734375,-0.994140625,-0.078125,0.0109100341796875
1714669061343289300,9.953289306640626,-0.9949493408203125,-0.0777587890625,0.010589599609375
1714669061353362400,9.963362548828124,-0.9975738525390625,-0.0783843994140625,0.0117950439453125
1714669061363435500,9.973435546875,-0.996856689453125,-0.0793914794921875,0.01324462890625
1714669061373509400,9.98350927734375,-0.9972991943359375,-0.07733154296875,0.010467529296875
1714669061383582500,9.99358251953125,-0.997406005859375,-0.0782318115234375,0.0108795166015625
1714669061393655300,10.0036552734375,-0.9962615966796875,-0.077728271484375,0.0106964111328125
1714669061403728400,10.013728271484375,-0.9957427978515625,-0.076934814453125,0.0103912353515625
1714669061413801500,10.023801513671875,-0.9948577880859375,-0.0759735107421875,0.0116424560546875
1714669061423874300,10.033874267578126,-0.9954833984375,-0.07769775390625,0.010040283203125
1714669061433947400,10.043947509765625,-0.99542236328125,-0.0756683349609375,0.0108184814453125
1714669061444021500,10.054021484375,-0.997039794921875,-0.0791778564453125,0.01202392578125
1714669061454094300,10.06409423828125,-0.9959716796875,-0.076568603515625,0.0118408203125
1714669061464167400,10.07416748046875,-0.9962615966796875,-0.0776824951171875,0.0102996826171875
1714669061474240300,10.084240234375,-0.9958343505859375,-0.0767669677734375,0.012603759765625
1714669061484313600,10.094313720703125,-0.9951934814453125,-0.076629638671875,0.010009765625
1714669061494387500,10.104387451171876,-0.9961700439453125,-0.078155517578125,0.0111083984375
1714669061504460300,10.114460205078124,-0.9959869384765625,-0.076629638671875,0.009613037109375
1714669061514533400,10.124533447265625,-0.99688720703125,-0.07781982421875,0.0110626220703125
1714669061524607200,10.134607177734376,-0.996063232421875,-0.0786590576171875,0.010772705078125
1714669061534680300,10.144680419921874,-0.9949798583984375,-0.07763671875,0.009979248046875
1714669061544753400,10.15475341796875,-0.9959716796875,-0.0772705078125,0.0119476318359375
1714669061554826200,10.164826171875,-0.9958038330078125,-0.0775604248046875,0.0117950439453125
1714669061564899300,10.1748994140625,-0.9960174560546875,-0.0773162841796875,0.0121917724609375
1714669061574972400,10.184972412109374,-0.9944915771484375,-0.0781707763671875,0.009979248046875
1714669061585045200,10.195045166015625,-0.9950714111328125,-0.076751708984375,0.01068115234375
1714669061595119400,10.205119384765625,-0.9948577880859375,-0.077301025390625,0.0108642578125
1714669061605192200,10.215192138671876,-0.9949493408203125,-0.077545166015625,0.0104522705078125
1714669061615265300,10.225265380859375,-0.996246337890625,-0.07769775390625,0.009979248046875
1714669061625338400,10.23533837890625,-0.9970245361328125,-0.078399658203125,0.0117340087890625
1714669061635411200,10.2454111328125,-0.99627685546875,-0.0764007568359375,0.0114898681640625
1714669061645484300,10.255484375,-0.995758056640625,-0.0772857666015625,0.0100555419921875
1714669061655557400,10.265557373046875,-0.9962158203125,-0.078460693359375,0.01055908203125
1714669061665631200,10.27563134765625,-0.995849609375,-0.0793609619140625,0.0103912353515625
1714669061675704300,10.285704345703126,-0.99432373046875,-0.0776519775390625,0.0116729736328125
1714669061685777200,10.295777099609374,-0.995819091796875,-0.0782318115234375,0.01165771484375
1714669061695850500,10.3058505859375,-0.996673583984375,-0.077301025390625,0.009307861328125
1714669061705923300,10.31592333984375,-0.9958343505859375,-0.0768585205078125,0.01116943359375
1714669061715996200,10.32599609375,-0.99664306640625,-0.0769500732421875,0.0120849609375
1714669061726069200,10.3360693359375,-0.9962005615234375,-0.0772705078125,0.0103912353515625
1714669061736143400,10.346143310546875,-0.9946746826171875,-0.0775146484375,0.01031494140625
1714669061746216200,10.35621630859375,-0.997100830078125,-0.0774688720703125,0.011383056640625
1714669061756289300,10.366289306640626,-0.9957275390625,-0.0781707763671875,0.0121002197265625
1714669061766362000,10.376362060546874,-0.99542236328125,-0.0769500732421875,0.0106048583984375
1714669061776435500,10.386435546875,-0.9965972900390625,-0.0774688720703125,0.01092529296875
1714669061786508300,10.39650830078125,-0.9965362548828125,-0.0774383544921875,0.0110931396484375
1714669061796581400,10.406581298828126,-0.995391845703125,-0.07757568359375,0.01080322265625
1714669061806655200,10.4166552734375,-0.99700927734375,-0.078277587890625,0.011566162109375
1714669061816728300,10.426728271484375,-0.9973297119140625,-0.078338623046875,0.0102691650390625
1714669061826801400,10.436801513671876,-0.994293212890625,-0.0774383544921875,0.0112457275390625
1714669061836874200,10.446874267578124,-0.9968719482421875,-0.07794189453125,0.0108642578125
1714669061846947000,10.456947021484375,-0.9953460693359375,-0.07733154296875,0.0103759765625
1714669061857020400,10.4670205078125,-0.9962921142578125,-0.07830810546875,0.0098114013671875
1714669061867093200,10.47709326171875,-0.9964447021484375,-0.0772247314453125,0.01153564453125
1714669061877167000,10.4871669921875,-0.994964599609375,-0.077056884765625,0.0113067626953125
1714669061887240200,10.497240234375,-0.995880126953125,-0.076324462890625,0.0113983154296875
1714669061897313300,10.507313232421875,-0.9967803955078125,-0.0775299072265625,0.0107574462890625
1714669061907386400,10.517386474609374,-0.9951934814453125,-0.0769195556640625,0.008697509765625
1714669061917459200,10.527459228515625,-0.9952239990234375,-0.0771484375,0.0117645263671875
1714669061927532300,10.5375322265625,-0.9971466064453125,-0.0771484375,0.0121612548828125
1714669061937605400,10.54760546875,-0.9938507080078125,-0.0783843994140625,0.0111236572265625
1714669061947679200,10.55767919921875,-0.9954071044921875,-0.077392578125,0.00933837890625
1714669061957752300,10.56775244140625,-0.9972686767578125,-0.077178955078125,0.011444091796875
1714669061967825200,10.5778251953125,-0.9953155517578125,-0.0772552490234375,0.0102691650390625
1714669061977898200,10.587898193359376,-0.9965667724609375,-0.077362060546875,0.0099029541015625
1714669061987971300,10.597971435546874,-0.9959869384765625,-0.077484130859375,0.01055908203125
1714669061998044200,10.608044189453125,-0.9964141845703125,-0.0784759521484375,0.0114593505859375
1714669062008117200,10.6181171875,-0.9963226318359375,-0.0772705078125,0.0102386474609375
1714669062018191400,10.62819140625,-0.996002197265625,-0.0763092041015625,0.0098724365234375
1714669062028264200,10.63826416015625,-0.9960174560546875,-0.07843017578125,0.01080322265625
1714669062038337300,10.648337158203125,-0.996002197265625,-0.0775909423828125,0.0120086669921875
1714669062048410000,10.65841015625,-0.99700927734375,-0.078369140625,0.0118560791015625
1714669062058483500,10.6684833984375,-0.9957275390625,-0.07855224609375,0.0105438232421875
1714669062068556300,10.678556396484375,-0.99505615234375,-0.07867431640625,0.011383056640625
1714669062078629400,10.68862939453125,-0.996246337890625,-0.0784454345703125,0.011566162109375
1714669062088702200,10.6987021484375,-0.998138427734375,-0.0770263671875,0.010406494140625
1714669062098776300,10.7087763671875,-0.9957733154296875,-0.07720947265625,0.010589599609375
1714669062108849400,10.718849365234375,-0.997222900390625,-0.076629638671875,0.0114288330078125
1714669062118922200,10.728922119140625,-0.995361328125,-0.0780792236328125,0.011322021484375
1714669062128995000,10.7389951171875,-0.996185302734375,-0.078948974609375,0.011199951171875
1714669062139068400,10.749068359375,-0.9961700439453125,-0.078857421875,0.0107421875
1714669062149141200,10.759141357421875,-0.9964752197265625,-0.0779266357421875,0.011322021484375
1714669062159214300,10.76921435546875,-0.9959259033203125,-0.0770721435546875,0.0110931396484375
1714669062169288400,10.779288330078124,-0.996002197265625,-0.0760040283203125,0.009521484375
1714669062179361300,10.789361328125,-0.9951019287109375,-0.07672119140625,0.010986328125
1714669062189434400,10.799434326171875,-0.996978759765625,-0.0774078369140625,0.0103302001953125
1714669062199507200,10.809507080078125,-0.996337890625,-0.0780792236328125,0.0112762451171875
1714669062209580300,10.819580322265624,-0.99554443359375,-0.0777740478515625,0.0109405517578125
1714669062219653400,10.8296533203125,-0.99493408203125,-0.076812744140625,0.010223388671875
1714669062229726200,10.839726318359375,-0.9961700439453125,-0.078369140625,0.012115478515625
1714669062239800300,10.84980029296875,-0.9967803955078125,-0.077301025390625,0.0104217529296875
1714669062249873200,10.859873046875,-0.9967803955078125,-0.0775299072265625,0.0113677978515625
1714669062259946200,10.8699462890625,-0.9960784912109375,-0.077392578125,0.01220703125
1714669062270019300,10.880019287109375,-0.9946746826171875,-0.077392578125,0.00970458984375
1714669062280092200,10.890092041015626,-0.995574951171875,-0.0780181884765625,0.01116943359375
1714669062290165200,10.900165283203124,-0.9975433349609375,-0.07763671875,0.0126495361328125
1714669062300238300,10.91023828125,-0.995361328125,-0.0777130126953125,0.011199951171875
1714669062310312200,10.920312255859375,-0.996337890625,-0.0772857666015625,0.0106201171875
1714669062320385300,10.93038525390625,-0.99810791015625,-0.077056884765625,0.01055908203125
1714669062330458000,10.9404580078125,-0.9974822998046875,-0.07806396484375,0.0117340087890625
1714669062340531500,10.950531494140625,-0.9953460693359375,-0.0774383544921875,0.012542724609375
1714669062350604300,10.960604248046875,-0.996673583984375,-0.077239990234375,0.011566162109375
1714669062360677000,10.970677001953124,-0.9962005615234375,-0.076995849609375,0.012359619140625
1714669062370750200,10.980750244140625,-0.9959716796875,-0.0759429931640625,0.0109405517578125
1714669062380824300,10.99082421875,-0.99609375,-0.0779266357421875,0.0108642578125
1714669062390897200,11.000897216796876,-0.99591064453125,-0.0776824951171875,0.009735107421875
1714669062400970200,11.01097021484375,-0.9963836669921875,-0.07769775390625,0.011474609375
1714669062411043000,11.02104296875,-0.9952239990234375,-0.0781707763671875,0.01287841796875
1714669062421116400,11.031116455078125,-0.996307373046875,-0.0786590576171875,0.011138916015625
1714669062431189200,11.041189208984376,-0.99755859375,-0.077667236328125,0.0112762451171875
1714669062441262300,11.051262451171874,-0.997222900390625,-0.076690673828125,0.0107421875
1714669062451336400,11.06133642578125,-0.9971923828125,-0.077056884765625,0.008758544921875
1714669062461409300,11.0714091796875,-0.9955902099609375,-0.077789306640625,0.0110321044921875
1714669062471482400,11.081482421875,-0.996551513671875,-0.0778961181640625,0.0099945068359375
1714669062481555200,11.09155517578125,-0.99658203125,-0.07763671875,0.011810302734375
1714669062491629300,11.10162939453125,-0.9949798583984375,-0.078338623046875,0.0118255615234375
1714669062501702400,11.111702392578126,-0.9957427978515625,-0.0774383544921875,0.0116424560546875
1714669062511775500,11.121775390625,-0.9964447021484375,-0.0768585205078125,0.011260986328125
1714669062521848300,11.131848388671875,-0.9964141845703125,-0.07806396484375,0.0117950439453125
1714669062531922400,11.14192236328125,-0.9961090087890625,-0.077545166015625,0.0089569091796875
1714669062541995300,11.151995361328124,-0.9962310791015625,-0.0784759521484375,0.010467529296875
1714669062552068400,11.162068359375,-0.996490478515625,-0.0762939453125,0.01104736328125
1714669062562141400,11.172141357421875,-0.996978759765625,-0.076904296875,0.0107574462890625
1714669062572214300,11.18221435546875,-0.99725341796875,-0.077606201171875,0.01055908203125
1714669062582287400,11.192287353515624,-0.9951324462890625,-0.0765380859375,0.0101318359375
1714669062592360400,11.2023603515625,-0.9963531494140625,-0.07696533203125,0.0109100341796875
1714669062602434300,11.212434326171875,-0.9972991943359375,-0.077728271484375,0.0100555419921875
1714669062612507400,11.22250732421875,-0.99639892578125,-0.078369140625,0.00933837890625
1714669062622580200,11.232580322265624,-0.9966888427734375,-0.0771026611328125,0.00970458984375
1714669062632653600,11.242653564453125,-0.995330810546875,-0.076629638671875,0.0105133056640625
1714669062642726400,11.252726318359375,-0.9961700439453125,-0.0771636962890625,0.0095977783203125
1714669062652799500,11.262799560546876,-0.995849609375,-0.078094482421875,0.010711669921875
1714669062662872300,11.272872314453124,-0.9967498779296875,-0.076751708984375,0.01129150390625
1714669062672946400,11.282946533203125,-0.996368408203125,-0.077728271484375,0.011016845703125
1714669062683019500,11.29301953125,-0.9963531494140625,-0.0788421630859375,0.010711669921875
1714669062693092400,11.30309228515625,-0.99578857421875,-0.0775299072265625,0.01123046875
1714669062703165200,11.313165283203125,-0.9976959228515625,-0.0771331787109375,0.01043701171875
1714669062713238500,11.323238525390625,-0.9948577880859375,-0.07763671875,0.0099945068359375
1714669062723311400,11.333311279296876,-0.996612548828125,-0.07781982421875,0.0107879638671875
1714669062733384400,11.343384521484374,-0.996551513671875,-0.0780181884765625,0.01025390625
1714669062743458600,11.35345849609375,-0.996337890625,-0.07733154296875,0.0111236572265625
1714669062753531400,11.363531494140625,-0.9960784912109375,-0.076202392578125,0.010589599609375
1714669062763604500,11.3736044921875,-0.9964752197265625,-0.07684326171875,0.0096282958984375
1714669062773677300,11.38367724609375,-0.996612548828125,-0.07794189453125,0.0082855224609375
1714669062783750400,11.39375048828125,-0.9963531494140625,-0.0773773193359375,0.0112457275390625
1714669062793823500,11.403823486328125,-0.995361328125,-0.077911376953125,0.0119171142578125
1714669062803896300,11.413896240234376,-0.9957122802734375,-0.0781707763671875,0.0121307373046875
1714669062813969400,11.423969482421874,-0.9957122802734375,-0.078125,0.0128021240234375
1714669062824043500,11.43404345703125,-0.9952545166015625,-0.0772705078125,0.0102996826171875
1714669062834116400,11.444116455078126,-0.9976348876953125,-0.077117919921875,0.01043701171875
1714669062844189400,11.454189453125,-0.9966278076171875,-0.07794189453125,0.0099639892578125
1714669062854262300,11.46426220703125,-0.99652099609375,-0.0791778564453125,0.0090789794921875
1714669062864335400,11.47433544921875,-0.99688720703125,-0.0784149169921875,0.009552001953125
1714669062874408400,11.484408447265626,-0.995635986328125,-0.0771026611328125,0.009918212890625
1714669062884481500,11.4944814453125,-0.99755859375,-0.0773773193359375,0.0127716064453125
1714669062894555400,11.504555419921875,-0.995513916015625,-0.07806396484375,0.012054443359375
1714669062904628500,11.51462841796875,-0.9972381591796875,-0.0774993896484375,0.01116943359375
1714669062914701600,11.52470166015625,-0.99615478515625,-0.077362060546875,0.009368896484375
1714669062924774400,11.5347744140625,-0.995819091796875,-0.0783538818359375,0.010528564453125
1714669062934847200,11.54484716796875,-0.9962615966796875,-0.0773468017578125,0.0092620849609375
1714669062944920300,11.55492041015625,-0.994415283203125,-0.0782470703125,0.011138916015625
1714669062954993400,11.564993408203126,-0.99554443359375,-0.07763671875,0.0124664306640625
1714669062965067300,11.5750673828125,-0.9953765869140625,-0.0771026611328125,0.0107879638671875
1714669062975140400,11.585140380859375,-0.9964141845703125,-0.077056884765625,0.0112152099609375
1714669062985213400,11.59521337890625,-0.9964752197265625,-0.0771331787109375,0.0111541748046875
1714669062995286500,11.60528662109375,-0.9960479736328125,-0.0780029296875,0.0128173828125
1714669063005359400,11.615359375,-0.996795654296875,-0.0776824951171875,0.010040283203125
1714669063015432400,11.625432373046875,-0.9962158203125,-0.0779266357421875,0.0111846923828125
1714669063025505300,11.63550537109375,-0.996612548828125,-0.078399658203125,0.0096893310546875
1714669063035579400,11.645579345703124,-0.99468994140625,-0.077972412109375,0.0105438232421875
1714669063045652500,11.655652587890625,-0.994873046875,-0.077392578125,0.010986328125
1714669063055725300,11.665725341796875,-0.99566650390625,-0.077880859375,0.010589599609375
1714669063065798400,11.67579833984375,-0.997314453125,-0.076141357421875,0.0101165771484375
1714669063075871500,11.68587158203125,-0.99725341796875,-0.07818603515625,0.011383056640625
1714669063085944300,11.6959443359375,-0.9970703125,-0.0780487060546875,0.010406494140625
1714669063096017400,11.706017333984375,-0.9965362548828125,-0.076507568359375,0.0108184814453125
1714669063106090200,11.71609033203125,-0.995513916015625,-0.0772705078125,0.0104827880859375
1714669063116164400,11.726164306640625,-0.99542236328125,-0.07733154296875,0.01080322265625
1714669063126237400,11.736237548828125,-0.9958953857421875,-0.0768890380859375,0.0113067626953125
1714669063136310300,11.746310302734376,-0.9965362548828125,-0.0769805908203125,0.010711669921875
1714669063146383600,11.756383544921874,-0.9948883056640625,-0.0781707763671875,0.010650634765625
1714669063156456400,11.76645654296875,-0.9951324462890625,-0.0772857666015625,0.009521484375
1714669063166529500,11.776529541015625,-0.9954071044921875,-0.0773468017578125,0.01007080078125
1714669063176602400,11.786602294921876,-0.9947662353515625,-0.0782928466796875,0.0105438232421875
1714669063186676500,11.796676513671875,-0.9970245361328125,-0.078338623046875,0.0107574462890625
1714669063196749600,11.80674951171875,-0.99737548828125,-0.07763671875,0.0095672607421875
1714669063206822400,11.816822509765625,-0.9951629638671875,-0.0777435302734375,0.0097198486328125
1714669063216895200,11.826895263671876,-0.996490478515625,-0.07806396484375,0.00994873046875
1714669063226968300,11.83696826171875,-0.997955322265625,-0.0784759521484375,0.00927734375
1714669063237041400,11.84704150390625,-0.9972991943359375,-0.077911376953125,0.0106964111328125
1714669063247114500,11.857114501953125,-0.99609375,-0.078033447265625,0.0101165771484375
1714669063257188400,11.867188232421874,-0.9961700439453125,-0.07720947265625,0.0112152099609375
1714669063267261400,11.877261474609375,-0.996856689453125,-0.078033447265625,0.0104217529296875
1714669063277334500,11.88733447265625,-0.995574951171875,-0.0779876708984375,0.0101318359375
1714669063287407400,11.897407470703126,-0.9947509765625,-0.07830810546875,0.009033203125
1714669063297480400,11.90748046875,-0.995574951171875,-0.078125,0.0120849609375
1714669063307553300,11.91755322265625,-0.9970703125,-0.0773468017578125,0.0104522705078125
1714669063317626400,11.92762646484375,-0.9969635009765625,-0.0762176513671875,0.0093994140625
1714669063327700500,11.937700439453126,-0.9960479736328125,-0.07830810546875,0.0098876953125
1714669063337773300,11.947773193359374,-0.994049072265625,-0.076934814453125,0.010589599609375
1714669063347846400,11.957846435546875,-0.9952850341796875,-0.0776214599609375,0.009307861328125
1714669063357919500,11.96791943359375,-0.996490478515625,-0.0767974853515625,0.011199951171875
1714669063367992300,11.977992431640626,-0.9967041015625,-0.0791168212890625,0.0114593505859375
1714669063378065400,11.9880654296875,-0.9962615966796875,-0.078216552734375,0.01019287109375
1714669063388138200,11.99813818359375,-0.996002197265625,-0.0774078369140625,0.0119781494140625
1714669063398211600,12.008211669921875,-0.99822998046875,-0.078216552734375,0.0108489990234375
1714669063408285400,12.018285400390624,-0.99609375,-0.0789031982421875,0.0114898681640625
1714669063418358300,12.028358154296875,-0.996063232421875,-0.078216552734375,0.01153564453125
1714669063428431600,12.038431640625,-0.9978790283203125,-0.0773468017578125,0.0108184814453125
1714669063438504400,12.04850439453125,-0.9946441650390625,-0.0766754150390625,0.011810302734375
1714669063448577300,12.058577392578124,-0.9964752197265625,-0.076507568359375,0.0107879638671875
1714669063458650400,12.068650390625,-0.9965972900390625,-0.0789794921875,0.0122528076171875
1714669063468723200,12.07872314453125,-0.9962005615234375,-0.07794189453125,0.010589599609375
1714669063478797300,12.08879736328125,-0.99658203125,-0.0780029296875,0.0109405517578125
1714669063488870400,12.098870361328125,-0.9952239990234375,-0.075714111328125,0.0103607177734375
1714669063498941200,12.108941162109375,-0.9942626953125,-0.0756072998046875,0.0118408203125
1714669063509014000,12.119013916015625,-0.9951171875,-0.0773468017578125,0.0105743408203125
1714669063519087000,12.129087158203125,-0.9963531494140625,-0.0778350830078125,0.010101318359375
1714669063529160000,12.139159912109376,-0.9962158203125,-0.078125,0.011566162109375
1714669063539233000,12.14923291015625,-0.9969635009765625,-0.0777435302734375,0.0125885009765625
1714669063549306000,12.15930615234375,-0.99725341796875,-0.0772857666015625,0.009552001953125
1714669063559380000,12.1693798828125,-0.996429443359375,-0.07806396484375,0.012542724609375
1714669063569453000,12.179453125,-0.9954833984375,-0.0772552490234375,0.0120391845703125
1714669063579526100,12.189526123046875,-0.9959869384765625,-0.07684326171875,0.0082855224609375
1714669063589599200,12.19959912109375,-0.9970550537109375,-0.0768280029296875,0.00946044921875
1714669063599672000,12.209672119140626,-0.9953155517578125,-0.0782318115234375,0.0095977783203125
1714669063609745200,12.2197451171875,-0.9951171875,-0.079345703125,0.010345458984375
1714669063619818000,12.22981787109375,-0.9949188232421875,-0.0776824951171875,0.01055908203125
1714669063629892000,12.23989208984375,-0.9954833984375,-0.0782012939453125,0.0099945068359375
1714669063639965200,12.249965087890626,-0.9969024658203125,-0.0767059326171875,0.009552001953125
1714669063650038000,12.2600380859375,-0.995147705078125,-0.077362060546875,0.0113067626953125
1714669063660111000,12.270111083984375,-0.9974365234375,-0.077880859375,0.0114288330078125
1714669063670184200,12.28018408203125,-0.9963836669921875,-0.078216552734375,0.0104217529296875
1714669063680257000,12.290257080078124,-0.995086669921875,-0.078033447265625,0.01019287109375
1714669063690330000,12.300330078125,-0.9960479736328125,-0.078826904296875,0.0122528076171875
1714669063700404200,12.310404296875,-0.9961700439453125,-0.077606201171875,0.01055908203125
1714669063710477000,12.32047705078125,-0.996185302734375,-0.078216552734375,0.009521484375
1714669063720550100,12.330550048828124,-0.997039794921875,-0.0786590576171875,0.01068115234375
1714669063730623000,12.340623046875,-0.997100830078125,-0.0768585205078125,0.0120391845703125
1714669063740696000,12.350696044921875,-0.9954681396484375,-0.078887939453125,0.01116943359375
1714669063750769200,12.36076904296875,-0.9962615966796875,-0.078125,0.011688232421875
1714669063760842000,12.370842041015624,-0.99560546875,-0.07763671875,0.0099945068359375
1714669063770916000,12.380916015625,-0.997161865234375,-0.0770721435546875,0.0108642578125
1714669063780989200,12.3909892578125,-0.996795654296875,-0.0770416259765625,0.0108642578125
1714669063791062000,12.40106201171875,-0.9980926513671875,-0.0782623291015625,0.0095977783203125
1714669063801135000,12.411135009765625,-0.9952545166015625,-0.0782012939453125,0.0101318359375
1714669063811208000,12.4212080078125,-0.9965362548828125,-0.0789947509765625,0.011260986328125
1714669063821281000,12.431281005859375,-0.9962310791015625,-0.0782470703125,0.0126495361328125
1714669063831354000,12.44135400390625,-0.9979400634765625,-0.0768890380859375,0.0110626220703125
1714669063841427200,12.45142724609375,-0.9959716796875,-0.07659912109375,0.012298583984375
1714669063851501000,12.4615009765625,-0.996856689453125,-0.0770263671875,0.01116943359375
1714669063861574100,12.47157421875,-0.9977874755859375,-0.077667236328125,0.010345458984375
1714669063871647200,12.481647216796874,-0.997100830078125,-0.07763671875,0.009918212890625
1714669063881720000,12.491719970703125,-0.99615478515625,-0.0782318115234375,0.0097503662109375
1714669063891793000,12.50179296875,-0.9940032958984375,-0.0771484375,0.0120391845703125
1714669063901866000,12.511865966796876,-0.996368408203125,-0.0764312744140625,0.0108795166015625
1714669063911939000,12.52193896484375,-0.9941864013671875,-0.077056884765625,0.00933837890625
1714669063922013000,12.532012939453125,-0.996063232421875,-0.07879638671875,0.009857177734375
1714669063932086000,12.5420859375,-0.994873046875,-0.0783843994140625,0.010650634765625
1714669063942159000,12.5521591796875,-0.9972381591796875,-0.077239990234375,0.011322021484375
1714669063952232200,12.562232177734375,-0.9962921142578125,-0.07781982421875,0.0100250244140625
1714669063962305000,12.572304931640625,-0.997161865234375,-0.0780792236328125,0.009735107421875
1714669063972378000,12.582378173828126,-0.996063232421875,-0.0777130126953125,0.00927734375
1714669063982451000,12.592450927734374,-0.9954986572265625,-0.078369140625,0.0111083984375
1714669063992524000,12.60252392578125,-0.9954376220703125,-0.0784149169921875,0.010498046875
1714669064002598100,12.61259814453125,-0.995635986328125,-0.07696533203125,0.009979248046875
1714669064012671000,12.6226708984375,-0.9969482421875,-0.0778045654296875,0.0104522705078125
1714669064022744000,12.632744140625,-0.9959259033203125,-0.07720947265625,0.00921630859375
1714669064032817200,12.642817138671875,-0.9968719482421875,-0.0768280029296875,0.0098114013671875
1714669064042890000,12.652889892578125,-0.9963531494140625,-0.0748443603515625,0.008697509765625
1714669064052963000,12.662963134765626,-0.994659423828125,-0.076690673828125,0.01226806640625
1714669064063036000,12.673035888671874,-0.995880126953125,-0.0769500732421875,0.0103912353515625
1714669064073110000,12.683110107421875,-0.99798583984375,-0.0760345458984375,0.0089874267578125
1714669064083183000,12.69318310546875,-0.9963226318359375,-0.0775909423828125,0.0104522705078125
1714669064093256000,12.703255859375,-0.995513916015625,-0.076812744140625,0.0109100341796875
1714669064103329300,12.713329345703125,-0.9967498779296875,-0.0761260986328125,0.011505126953125
1714669064113402000,12.723402099609375,-0.9969024658203125,-0.076629638671875,0.009735107421875
1714669064123475200,12.73347509765625,-0.997833251953125,-0.076507568359375,0.0101165771484375
1714669064133548000,12.743548095703124,-0.99542236328125,-0.0773162841796875,0.0100555419921875
1714669064143622100,12.7536220703125,-0.9966888427734375,-0.078460693359375,0.0095672607421875
1714669064153695200,12.7636953125,-0.9979705810546875,-0.0778045654296875,0.0100555419921875
1714669064163768000,12.77376806640625,-0.996795654296875,-0.0770416259765625,0.010711669921875
1714669064173841000,12.7838408203125,-0.996185302734375,-0.078399658203125,0.010345458984375
1714669064183914200,12.793914306640625,-0.996490478515625,-0.076904296875,0.011627197265625
1714669064193987000,12.803987060546875,-0.99517822265625,-0.076019287109375,0.0111541748046875
1714669064204060200,12.81406005859375,-0.9958953857421875,-0.0782470703125,0.010498046875
1714669064214133000,12.824133056640624,-0.996429443359375,-0.077484130859375,0.0107421875
1714669064224207000,12.83420703125,-0.9979248046875,-0.0771026611328125,0.0106201171875
1714669064234280200,12.8442802734375,-0.997283935546875,-0.0783843994140625,0.011474609375
1714669064244353000,12.85435302734375,-0.994476318359375,-0.077972412109375,0.009674072265625
1714669064254426000,12.864426025390625,-0.994964599609375,-0.0773773193359375,0.012786865234375
1714669064264499200,12.874499267578125,-0.995208740234375,-0.0789642333984375,0.0109100341796875
1714669064274572000,12.884572021484376,-0.99609375,-0.0787811279296875,0.010498046875
1714669064284645000,12.89464501953125,-0.9962615966796875,-0.078277587890625,0.0104217529296875
1714669064294719000,12.904718994140625,-0.9954833984375,-0.0774993896484375,0.0110015869140625
1714669064304792000,12.9147919921875,-0.99713134765625,-0.0775146484375,0.0114898681640625
1714669064314865200,12.924865234375,-0.996826171875,-0.0786590576171875,0.0116424560546875
1714669064324938000,12.93493798828125,-0.9964447021484375,-0.0772247314453125,0.0093841552734375
1714669064335011000,12.945010986328125,-0.995880126953125,-0.077972412109375,0.0104827880859375
1714669064345084200,12.955084228515625,-0.9943695068359375,-0.078826904296875,0.0114288330078125
1714669064355157200,12.9651572265625,-0.9954833984375,-0.077178955078125,0.0102386474609375
1714669064365231000,12.975231201171875,-0.9953155517578125,-0.077789306640625,0.009674072265625
1714669064375304000,12.985303955078125,-0.9969635009765625,-0.0782012939453125,0.0100555419921875
