time,seconds_elapsed,z,y,x
1714669051423751200,0.033751220703125,0.007409399473667144,-0.014983707185462117,-0.039804771643877024
1714669051433824000,0.043823974609375,-0.015093524235486983,-0.028943112824484703,-0.06254475551191717
1714669051443897000,0.05389697265625,-0.09223229349553584,-0.036472193155065176,-0.09375456202621571
1714669051453970000,0.063969970703125,-0.2011824975579977,-0.04877966686859726,-0.11222954539353959
1714669051464044000,0.0740439453125,-0.19961714793741703,-0.06468253472559153,-0.12815884459973312
1714669051474117000,0.0841171875,-0.13730477640926836,-0.08389467326104641,-0.05641976525902282
1714669051484190500,0.0941904296875,-0.05767243676781654,-0.07075527876801789,0.08156470507667399
1714669051494263600,0.104263671875,-0.05295242250859737,-0.04716616725735366,0.09951874244296922
1714669051504336600,0.114336669921875,-0.0603536386758089,-0.07112630403749644,0.08816625876617618
1714669051514409500,0.124409423828125,0.01007131215929985,-0.06975866894610226,0.11430631513497791
1714669051524483300,0.1344833984375,-0.019402035084366796,-0.06503704725168645,0.1130056991314981
1714669051534556700,0.144556640625,-0.09895604879260063,-0.06679806557483971,0.1563114189678803
1714669051544629500,0.15462939453125,-0.05919394724667072,-0.0629716391544789,0.08596930584432556
1714669051554702600,0.16470263671875,-0.008027239111065863,-0.08849171872772275,0.03785807628920301
1714669051564775400,0.174775390625,0.017901567393541335,-0.0961873147316277,0.11278413793584331
1714669051574848500,0.1848486328125,0.05769932477474212,-0.09800824654847383,0.12407155701979063
1714669051584922600,0.194922607421875,0.11963409516215323,-0.11826134550422429,0.09794351074919104
1714669051594995500,0.204995361328125,0.11137070920765399,-0.1067268289245665,0.036330291333189234
1714669051605068500,0.215068603515625,0.08961012829840183,-0.12615816316865383,0.05117343013733625
1714669051615141600,0.2251416015625,0.07833411652445793,-0.12914550841636954,0.05795072398623451
1714669051625214500,0.23521435546875,0.05850830307006836,-0.1300168113581836,0.04926399805312976
1714669051635287600,0.24528759765625,0.11514204443991184,-0.08781776498891412,0.0512135794846341
1714669051645361400,0.255361328125,0.1399912390142679,-0.07802439298816025,0.11798647408559917
1714669051655434500,0.2654345703125,0.1743862605690956,-0.07489420520365238,0.17004914468023924
1714669051665507600,0.275507568359375,0.13989888455569743,-0.0837839063629508,0.1715117280460894
1714669051675580400,0.285580322265625,0.14176234034001825,-0.0723742582719773,0.1898346809231676
1714669051685653500,0.295653564453125,0.17647241919338702,-0.037501901528984305,0.21915488343173636
1714669051695726600,0.3057265625,0.20632219853401182,-0.03159435798563063,0.28382516146395353
1714669051705800400,0.315800537109375,0.21591478726565835,0.008882394635677337,0.3858263135734945
1714669051715873500,0.32587353515625,0.1633499027699232,0.02032915986664593,0.4601230278080329
1714669051725946400,0.3359462890625,0.1624567533224821,0.019406272868067027,0.508317953591235
1714669051736019700,0.346019775390625,0.2303255899339914,0.0008158464275300503,0.49083983577415347
1714669051746092500,0.356092529296875,0.2073293297499418,-0.03539338494241238,0.42629254480078815
1714669051756165600,0.36616552734375,0.16297756232619284,-0.050871086189895866,0.37997046368476
1714669051766239700,0.37623974609375,0.17393384062647818,-0.04473718654476106,0.3688528208103031
1714669051776312600,0.3863125,0.22540040849149226,-0.04695435113757848,0.3121897072155028
1714669051786385700,0.3963857421875,0.14615385329723357,-0.04911920102126896,0.2007304612078704
1714669051796458500,0.40645849609375,-0.03302724033296108,-0.032929990503564474,0.1093059404312633
1714669051806531300,0.41653125,-0.14153145419359206,-0.05883680437207222,0.05343862598980777
1714669051816604700,0.426604736328125,-0.15885960561335086,-0.06577683276832104,-0.028638590619689784
1714669051826678500,0.436678466796875,-0.20122750574350357,-0.07320917472615837,-0.10095101286894641
1714669051836751400,0.44675146484375,-0.2255465389639139,-0.0681914196293801,-0.1308839678478427
1714669051846824700,0.45682470703125,-0.19302900171875953,-0.07898220516964792,-0.14972984862048178
1714669051856897500,0.4668974609375,-0.17522095782756805,-0.10544321885481477,-0.12003267515883781
1714669051866970600,0.476970703125,-0.15766133573949337,-0.10566774832569062,-0.05074199818382039
1714669051877043500,0.48704345703125,-0.15978315019905567,-0.11307510197274387,-0.023518229098385197
1714669051887117600,0.49711767578125,-0.07722644754350184,-0.07103380344845354,0.033374007944017646
1714669051897190700,0.507190673828125,0.061035191199183464,-0.045340340069681406,0.07017031848691403
1714669051907263500,0.517263427734375,0.1472241128772497,-0.03907835706546903,0.064237868831167
1714669051917336600,0.527336669921875,0.06493862837851047,-0.0413721670910716,0.04107692873785272
1714669051927409700,0.53740966796875,-0.029966683718562124,-0.029814269635826347,0.027349149030772967
1714669051937482500,0.547482421875,-0.03207388513088226,-0.01766666265912354,-0.0367706007129047
1714669051947556600,0.557556640625,-0.056015317210555075,-0.02993621551506221,-0.05567926278975792
1714669051957629400,0.56762939453125,-0.06828209358751773,-0.052130657796934245,-0.04318557318858802
1714669051967702500,0.57770263671875,-0.055932899624109265,-0.05127667131610215,-0.018141294433549046
1714669051977775600,0.587775634765625,-0.0343728097230196,-0.05695004077740013,0.013630091486265882
1714669051987848400,0.597848388671875,-0.019647534278035162,-0.062022667866572734,0.06651483731982298
1714669051997921500,0.607921630859375,0.041187750434875485,-0.04959777831844985,0.125655867069168
1714669052007995600,0.61799560546875,0.08523147482275963,-0.03608670096881687,0.12820002599349245
1714669052018068500,0.628068359375,0.08354688273668288,-0.023792963519692418,0.10349477906762622
1714669052028141600,0.6381416015625,0.05316518847644329,-0.017011925077438355,0.09020298875817097
1714669052038214400,0.64821435546875,0.021775778478384016,-0.0005348375290632248,0.0670457567255944
1714669052048287700,0.658287841796875,0.01066343283355236,0.01801306494399905,0.04932827719468623
1714669052058360600,0.668360595703125,0.001014145478606224,0.0012115677468478678,0.03158742592134513
1714669052068434400,0.678434326171875,-0.01058978307545185,-0.015172653886303305,0.036279090868914496
1714669052078507500,0.688507568359375,-0.022079145339131353,-0.008679638605192302,0.04363179171928205
1714669052088580600,0.69858056640625,-0.013935586372017859,-0.016476064635068177,0.045511294456105675
1714669052098653400,0.7086533203125,-0.010429624077677726,-0.034612317567318675,0.029936827436415476
1714669052108726500,0.7187265625,-0.037004911792278286,-0.03907923384830356,0.017993437794921917
1714669052118799400,0.72879931640625,-0.03407762616872787,-0.03442015599608421,0.051184663917403665
1714669052128873500,0.73887353515625,-0.015993103423714638,-0.053649610992521045,0.07823715895600616
1714669052138946600,0.748946533203125,-0.0005897825866937637,-0.053137642882391804,0.09988305484387092
1714669052149019400,0.759019287109375,0.006589899784326553,-0.05061930338591337,0.10215573074989952
1714669052159092500,0.769092529296875,0.029345921471714973,-0.05052227275222539,0.09218401564070955
1714669052169165600,0.77916552734375,0.01605214013457298,-0.043416386269778014,0.09746482385415584
1714669052179238700,0.78923876953125,0.011585223853588103,-0.04408288735449314,0.06286806004899553
1714669052189312500,0.7993125,0.025953356423974037,-0.030446210863813754,0.0748953194485046
1714669052199385600,0.809385498046875,0.023667291313409805,-0.019263868722692132,0.06615369412354193
1714669052209458700,0.819458740234375,0.015203414350748061,-0.0038134938735514875,0.051619036746677005
1714669052219531500,0.829531494140625,0.004465747237205505,-0.010313961808755993,0.027503508475422857
1714669052229604600,0.8396044921875,0.024821722045540808,-0.0005718085385859012,0.06620787199619226
1714669052239677400,0.849677490234375,0.030948680493235587,-0.01581416666023433,0.07385498921587132
1714669052249751600,0.85975146484375,0.02388356441259384,-0.025074381632357836,0.0619248883142136
1714669052259824600,0.86982470703125,0.031626725885272024,-0.027227029621601104,0.08121096886871382
1714669052269897500,0.8798974609375,0.02365560087561607,-0.03728869716972112,0.09852965834038331
1714669052279970600,0.889970458984375,0.0351484702706337,-0.01889342797510326,0.11189065056168473
1714669052290043600,0.900043701171875,0.03140285400152206,-0.029533626063540576,0.09950117025366052
1714669052300116500,0.910116455078125,0.02271685872077942,-0.036976562480628486,0.11182068146485835
1714669052310190300,0.9201904296875,0.03917757965624332,-0.038061508173123,0.08536940372241661
1714669052320263700,0.930263671875,0.03844342016279697,-0.03333550256453454,0.08720449192877858
1714669052330336500,0.94033642578125,0.023510054925084112,-0.04063135866113007,0.06776935829240828
1714669052340409600,0.95040966796875,0.012937222984433174,-0.043682928251475094,0.08077951864888891
1714669052350482400,0.960482421875,0.025854572224617,-0.05164988854266703,0.07147486174684017
1714669052360555800,0.9705556640625,0.025453590208292007,-0.041949382457137106,0.06913112076544202
1714669052370629600,0.980629638671875,0.009068272596597671,-0.045756665785610676,0.0752112900624983
1714669052380702500,0.990702392578125,0.0000339022696018219,-0.04440481278523802,0.05686876940184738
1714669052390775600,1.000775634765625,0.011499299135804176,-0.045901554149016734,0.07866909323302097
1714669052400848600,1.0108486328125,0.003209609696269035,-0.050651963546499604,0.06714880610811523
1714669052410921500,1.02092138671875,-0.00597089110314846,-0.044869142361357806,0.06426367912585847
1714669052420994600,1.03099462890625,0.012686463093757629,-0.05112264979816973,0.059528366832807655
1714669052431068400,1.041068359375,0.0341810865432024,-0.04547412251718342,0.07319307297472842
1714669052441141500,1.0511416015625,0.034409050080180165,-0.03555383620113134,0.051349307294050225
1714669052451214600,1.061214599609375,0.0015519056171178817,-0.03831650584749877,0.077433231295133
1714669052461287400,1.071287353515625,0.010908932027220725,-0.06237944541499018,0.0831523487274535
1714669052471360500,1.081360595703125,-0.005349544334411621,-0.04316562637910246,0.055518743032380004
1714669052481433600,1.09143359375,-0.02490530867576599,-0.032868469574674965,0.06175882929861545
1714669052491506700,1.101506591796875,0.0013332944303750991,-0.04792641104012727,0.07929181910809129
1714669052501580800,1.111580810546875,0.013826280778646468,-0.026604221548140048,0.07658515853185671
1714669052511653600,1.121653564453125,0.017810966500639916,-0.016787541737034915,0.06908209399194457
1714669052521726700,1.131726806640625,0.025075989067554472,-0.03791362413503229,0.06686097930979448
1714669052531799800,1.1417998046875,0.019914076259732245,-0.03412972168214619,0.053476501181628555
1714669052541872600,1.15187255859375,0.005623685100674629,-0.030168416835740206,0.05125275615097489
1714669052551945700,1.16194580078125,0.01363455759882927,-0.03151435155197978,0.06637272543539292
1714669052562019600,1.17201953125,0.03737491414844989,-0.035329672056436535,0.05707261684429831
1714669052572092700,1.1820927734375,0.03371756068468094,-0.03026610505655408,0.08068482610275969
1714669052582165800,1.192165771484375,0.03200374250411987,-0.02666829976029694,0.05886997142273467
1714669052592238600,1.202238525390625,0.02101882263123989,-0.014021072698384523,0.06540641942019573
1714669052602311700,1.212311767578125,0.0239636439114809,-0.02280840946175158,0.07890378790488466
1714669052612384800,1.222384765625,0.009839256969094276,-0.026082608826830982,0.06994157406522426
1714669052622458600,1.232458740234375,-0.002052256354689598,-0.016332126119732854,0.05805190107207745
1714669052632531700,1.24253173828125,0.000716039314866066,-0.020150953755527733,0.0565095030688215
1714669052642604500,1.2526044921875,0.016804419806599614,-0.02130545755289495,0.07410964896352962
1714669052652678000,1.262677978515625,0.027950083199143407,-0.033453210660070176,0.08918793909726663
1714669052662750700,1.272750732421875,0.04809563012719154,-0.03853606688231229,0.09062013645800761
1714669052672823600,1.282823486328125,0.022166239100694655,-0.03061857175603509,0.07638407386865001
1714669052682898000,1.29289794921875,0.00490472317636013,-0.012847425809130071,0.06703941374977584
1714669052692970800,1.302970703125,-0.0024748656809329985,-0.004014496338367462,0.07044687953912653
1714669052703043600,1.313043701171875,0.008691840499639511,-0.00359086409881711,0.0795808651825413
1714669052713116700,1.32311669921875,-0.0022977555483579635,-0.010075623008236289,0.04013717280286364
1714669052723189500,1.333189453125,0.0013689502656459808,-0.027972368096187708,0.0438247478749603
1714669052733262800,1.343262939453125,0.004123217409849167,-0.036433760840818286,0.05010700648222118
1714669052743336700,1.353336669921875,-0.01885901424884796,-0.030116759713739154,0.05361143440660089
1714669052753409500,1.363409423828125,-0.003234744137525558,-0.030657077135518192,0.05149947918734979
1714669052763483000,1.37348291015625,0.008353986847400664,-0.0348494142588228,0.07077083709675352
1714669052773555700,1.3835556640625,-0.01388414844572544,-0.03026552053466439,0.04931748180603608
1714669052783628800,1.39362890625,0.006503975066542625,-0.021069822166115044,0.05093254318670369
1714669052793701600,1.40370166015625,0.017439210578799248,-0.02753295376561582,0.05394639741543215
1714669052803774700,1.413774658203125,-0.0027718028008937834,-0.018302914736047386,0.059298530999151985
1714669052813848800,1.423848876953125,0.016806173372268675,-0.011128054670616984,0.05796092571984045
1714669052823921700,1.433921630859375,0.012592355069518089,-0.01862659373246133,0.06798074515392072
1714669052833994800,1.443994873046875,0.011966916647553442,-0.00634461978636682,0.06481379642244428
1714669052844067800,1.45406787109375,0.010284662649035454,-0.02251644077785313,0.061207533825095736
1714669052854140700,1.464140625,0.011007131704688072,-0.003059314505383372,0.04922606806238181
1714669052864213800,1.4742138671875,0.003510638469457626,-0.019377046773582696,0.0602167418226134
1714669052874287600,1.48428759765625,0.020973814445734023,-0.023327903291210532,0.061111580903641875
1714669052884360700,1.494360595703125,0.028112580284476277,-0.023831980355828997,0.03715467726020142
1714669052894433800,1.504433837890625,0.011034604233503342,-0.013590864587575196,0.05936835396550595
1714669052904506600,1.514506591796875,0.01279401512145996,-0.028861572020873427,0.0630948088764213
1714669052914579700,1.524579833984375,0.011568272718787192,-0.01489259483590722,0.05642080187206156
1714669052924652800,1.53465283203125,-0.0019014497071504592,-0.030905791199579834,0.06004069113596342
1714669052934726700,1.5447265625,-0.007299509358406066,-0.02106236951202154,0.06625729149533435
1714669052944799700,1.5547998046875,0.007960019093751906,-0.028528906000405547,0.05178664839854464
1714669052954872600,1.56487255859375,-0.0028109657675027848,-0.031139599955454466,0.05607279215198941
1714669052964946000,1.57494580078125,-0.001911386579275131,-0.02984283814318478,0.06827288736775516
1714669052975018800,1.585018798828125,-0.005796703580021858,-0.03848506734743714,0.04667712336508557
1714669052985091600,1.595091552734375,-0.001609188762307167,-0.03564619065970182,0.05950687652020715
1714669052995165700,1.605165771484375,0.015906009662151336,-0.029492636466026304,0.053302907313546165
1714669053005238800,1.61523876953125,0.03415770566761493,-0.02543634681254625,0.036239781771833075
1714669053015311600,1.6253115234375,0.007809212446212768,-0.02217296110242605,0.05639999654605053
1714669053025384700,1.635384765625,0.011242694026231764,-0.026138211471587416,0.06158895262442529
1714669053035457500,1.64545751953125,0.025455928295850753,-0.02327792666964233,0.05194499446514528
1714669053045531000,1.65553076171875,0.018871873730421065,-0.025560265453159807,0.0558463218857767
1714669053055603700,1.665603759765625,-0.00029401451051235195,-0.018252280527353285,0.04694161038701422
1714669053065677600,1.675677490234375,0.018548633125424385,-0.02590067638866603,0.0610088831475703
1714669053075750700,1.685750732421875,0.011808511215448379,-0.025830826022848485,0.06325079402257688
1714669053085823700,1.69582373046875,0.0023667291313409803,-0.024451938885077833,0.05163058105399832
1714669053095896800,1.705896728515625,0.002814472898840904,-0.01741816779077053,0.05783797976018395
1714669053105969700,1.7159697265625,0.0034083471387624737,-0.02770787194110453,0.06368414850512054
1714669053116042500,1.72604248046875,0.005496259328722953,-0.030040406541898844,0.06025064409221522
1714669053126116900,1.736116943359375,0.0026461305946111676,-0.02636113350726664,0.03917445155081804
1714669053136189700,1.746189697265625,-0.0022919103294610976,-0.016649667636305092,0.056839342377963474
1714669053146262500,1.756262451171875,-0.0036316345006227493,-0.023505744076147674,0.06036818322439212
1714669053156335600,1.766335693359375,-0.0069242463052272794,-0.018753654178231955,0.05141023456789553
1714669053166408700,1.77640869140625,0.014926935496926306,-0.02497179804071784,0.03133939684387296
1714669053176481800,1.786481689453125,0.007144611057639121,-0.014213964921981095,0.04137704876216594
1714669053186555600,1.7965556640625,0.007135258707404136,-0.006931041372194886,0.04442556787889916
1714669053196628700,1.806628662109375,0.01671264986991882,-0.01445668763667345,0.06593101868303493
1714669053206701800,1.816701904296875,-0.00558919830918312,-0.016191037148609755,0.05488802108052186
1714669053216774700,1.826774658203125,0.023587796336412427,-0.006750131847336888,0.06694374852268956
1714669053226847700,1.83684765625,0.023870704931020736,-0.011788856666907667,0.04922351077911444
1714669053236920600,1.846920654296875,0.0084440032184124,-0.016861191495135427,0.050188853246509096
1714669053246993700,1.85699365234375,-0.0005447744011878967,-0.03888042334057391,0.05221826301515102
1714669053257067800,1.86706787109375,-0.0036906712114810943,-0.028523133846744892,0.036739981812355105
1714669053267140600,1.877140625,-0.008471475747227668,-0.02399922668151557,0.05096532207829878
1714669053277213700,1.887213623046875,-0.0005365910947322845,-0.01615581970475614,0.03972787961591966
1714669053287286800,1.897286865234375,0.0017196633994579313,-0.028007366344332693,0.04523775647804141
1714669053297359600,1.907359619140625,0.00577916792333126,-0.02349668398685753,0.06097882136944681
1714669053307432700,1.9174326171875,0.012821487650275229,-0.03037204964905977,0.04044875950268469
1714669053317506800,1.9275068359375,0.021664719319343564,-0.030588761139661073,0.056451283775293265
1714669053327579600,1.93757958984375,0.01659340740442276,-0.022894480310007927,0.06686671493083704
1714669053337652700,1.94765283203125,0.0065653498649597165,-0.021080635821074247,0.0438792636743281
1714669053347725600,1.9577255859375,0.011059154152870178,-0.029545681827515363,0.04630299282306805
1714669053357799000,1.967798828125,0.022144027268886566,-0.01566489438265562,0.050591004306613466
1714669053367871700,1.977871826171875,0.016003624817728997,-0.009787745977565645,0.047155960957170465
1714669053377945600,1.987945556640625,0.005223287606239318,-0.027099457719177007,0.03678679379587993
1714669053388018700,1.998018798828125,0.008362754675745964,-0.0219829184230417,0.05059403194733895
1714669053398091800,2.008091796875,0.02106850699186325,-0.01749722437635064,0.040978747326694424
1714669053408164900,2.018164794921875,0.01164250699877739,-0.0229104815967381,0.043523833266203286
1714669053418237700,2.02823779296875,0.009998246923089028,-0.022789631696045396,0.02058052711209748
1714669053428310500,2.038310546875,0.006245031869411468,-0.028189664108678698,0.03903678751264233
1714669053438385000,2.048385009765625,0.005803717842698097,-0.026816256863623857,0.0437461981794564
1714669053448457700,2.058457763671875,0.0032476036190986633,-0.02441262978799641,0.043112731714663094
1714669053458530600,2.068530517578125,0.02120528511404991,-0.03477254963032901,0.03574285596720874
1714669053468603600,2.078603759765625,0.02269055523574352,-0.04589892380051314,0.051127061111805955
1714669053478676700,2.0886767578125,0.02837444609105587,-0.015069924164190887,0.04903579705413431
1714669053488749800,2.098749755859375,0.01865560063123703,-0.01833959348462522,0.0385986929228995
1714669053498823000,2.108822998046875,0.01058627594411373,-0.02821589452847838,0.03332507250206545
1714669053508896800,2.118896728515625,0.02359948677420616,-0.03041647331267595,0.04697480940371752
1714669053518969900,2.128969970703125,-0.00514262358546257,-0.025492607044428586,0.026323870236799118
1714669053529042700,2.139042724609375,0.008630465701222419,-0.01901515465863049,0.030442329273140056
1714669053539116000,2.149115966796875,0.005026888251304626,-0.012298267493769525,0.02983124817009084
1714669053549188900,2.15918896484375,0.009044891721010207,-0.015765943604335187,0.03877858866760507
1714669053559261700,2.16926171875,0.008721651116013526,-0.01892046211250126,0.03773045415442902
1714669053569336000,2.179336181640625,0.019044307687878608,-0.012186843008548021,0.03954278710628859
1714669053579409000,2.189408935546875,0.016949965757131577,-0.02356923776641488,0.030541789325932038
1714669053589481700,2.199481689453125,0.018579612785577772,-0.013177023089677095,0.05851892036220524
1714669053599554800,2.209554931640625,0.0220031574934721,-0.02986073912605643,0.04586021749163046
1714669053609627600,2.219627685546875,0.005821838021278381,-0.021980653400719165,0.029775622692448087
1714669053619701000,2.229700927734375,0.001934182932972908,-0.015002923342585562,0.046129535952303555
1714669053629773800,2.23977392578125,0.00029109190106391906,-0.020733210622891782,0.028817641547601667
1714669053639847700,2.24984765625,0.0010293430477380753,-0.022433584799990056,0.03702740675187669
1714669053649921000,2.259921142578125,0.005504442635178566,-0.013152180909365414,0.04239948257850483
1714669053659993900,2.269993896484375,0.011176058530807494,-0.02002104376554489,0.05156437481683679
1714669053670067000,2.28006689453125,0.016405775877833366,-0.0326756504163146,0.06227339122463017
1714669053680139800,2.290139892578125,0.028671383211016654,-0.023800489239022133,0.0434492016939912
1714669053690212600,2.300212646484375,0.0137029466599226,-0.018655089174583552,0.041936111983610316
1714669053700287000,2.310286865234375,0.002778232541680336,-0.030762364140897988,0.03887764686159789
1714669053710359800,2.32035986328125,0.005164250895380974,-0.026159181194379925,0.02144524048292078
1714669053720432600,2.3304326171875,0.008466799572110176,-0.016140183744207025,0.028195198800321668
1714669053730505700,2.340505615234375,0.016994389420747755,-0.03454612046331167,0.04756670174910687
1714669053740578800,2.350578857421875,0.004712415474653244,-0.021101459413394332,0.05192392884423025
1714669053750652000,2.36065185546875,0.02340074933171272,-0.023322569528967142,0.058694674221333114
1714669053760725800,2.370725830078125,0.01367021343410015,-0.01835289135761559,0.045637615116359664
1714669053770798800,2.380798828125,0.004987140762805938,-0.007555603011325001,0.049149687491077926
1714669053780872000,2.390871826171875,0.008441665130853652,-0.013276391810923814,0.048349997613904995
1714669053790944800,2.40094482421875,0.014420155018568038,-0.01812302812449634,0.027671649850253013
1714669053801017900,2.411017822265625,0.011581132200360297,-0.01624890481568873,0.04130885606389492
1714669053811090700,2.421090576171875,0.00888531724512577,-0.027474793837592004,0.033503032018011435
1714669053821163800,2.431163818359375,0.0030471126109361648,-0.024024434188008308,0.03405374296964146
1714669053831238000,2.44123779296875,0.0021428572475910186,-0.035342604603245856,0.025544273299584162
1714669053841310700,2.451310791015625,0.012762450939416884,-0.015106675978004932,0.04234913149760104
1714669053851383800,2.4613837890625,0.014865560698509216,-0.022424086319282648,0.04359477504398673
1714669053861457000,2.471456787109375,0.006197101074457168,-0.019008359591662884,0.03398670561541803
1714669053871529700,2.48152978515625,0.004110357928276062,-0.014033859114721417,0.030206639087432995
1714669053881602800,2.491602783203125,0.022070377510786054,-0.02726772695817053,0.025965951044065877
1714669053891677000,2.501677001953125,0.01622340504825115,-0.012163169872015715,0.03386533512491733
1714669053901749800,2.511749755859375,0.011568272718787192,-0.01675860790349543,0.03488704285547137
1714669053911822800,2.52182275390625,0.007213584640622139,-0.019411752760782837,0.0377529902132228
1714669053921895700,2.531895751953125,0.007205985856056213,-0.028909868142008778,0.03355363882724195
1714669053931969000,2.541968994140625,0.0045125089883804315,-0.025321342130750418,0.03426333973286673
1714669053942041900,2.552041748046875,0.00779343035519123,-0.026692703549191354,0.03826641049492173
1714669053952115700,2.56211572265625,0.03038812400102615,-0.026247151738777754,0.03724662985997274
1714669053962188800,2.572188720703125,0.014665654212236404,-0.01325111123919487,0.017403655208228154
1714669053972262000,2.582261962890625,0.01631985116004944,-0.027127587835118174,0.02995829948270693
1714669053982335000,2.5923349609375,0.00419803621172905,-0.010505977249518036,0.032782362193800506
1714669053992407800,2.60240771484375,0.0035930560559034345,-0.0023440058428794144,0.04050772314830683
1714669054002480600,2.612480712890625,0.0020925883650779725,-0.006623436727747321,0.04238791087171994
1714669054012554000,2.622553955078125,0.014366963526606559,-0.01759944264180958,0.03503346558883786
1714669054022627800,2.6326279296875,0.011380056670308112,-0.02144844622015953,0.03643084736452438
1714669054032700700,2.64270068359375,0.010023965886235237,-0.014458002810925245,0.04556248578722588
1714669054042773800,2.652773681640625,0.012872341054677962,-0.019468670579791066,0.02697152962372638
1714669054052846800,2.662846923828125,0.009425415471196174,-0.020477628426626322,0.030289668595232067
1714669054062920000,2.672919921875,0.005083586874604225,-0.020613675896450877,0.024114322694856673
1714669054072992800,2.68299267578125,0.019885434687137604,-0.025259163614735007,0.010672282860288396
1714669054083067000,2.69306689453125,0.001325111123919487,-0.03193944509625435,0.024720389696070922
1714669054093140000,2.703139892578125,0.01672550935149193,-0.024612024817615746,0.027693067097617312
1714669054103212800,2.713212890625,0.011480009913444519,-0.013901830232888459,0.04326930594928562
1714669054113286000,2.723285888671875,0.014613047242164612,-0.016042057131975887,0.04268134999349713
1714669054123358700,2.733358642578125,0.01175181259214878,-0.02776749317385256,0.04137688893196173
1714669054133431800,2.743431884765625,0.013085691544413566,-0.016673121577128767,0.038234015195816755
1714669054143506000,2.753505859375,0.020870938593149185,-0.015536811023578047,0.03626009390749969
1714669054153578800,2.763578857421875,0.018028993165493012,-0.014801628616824745,0.04824494807054289
1714669054163651600,2.773651611328125,0.008010287976264954,-0.01819156331606209,0.026518324229819697
1714669054173725000,2.783724853515625,0.008146481576561927,-0.01382291977778077,0.02096249846727587
1714669054183797800,2.7937978515625,0.0033458032965660092,-0.018024316990375516,0.02586284686261788
1714669054193870800,2.803870849609375,0.024590835899114608,-0.021428864736855027,0.04031697721602395
1714669054203943700,2.813943603515625,0.032203648990392686,-0.014452742113918065,0.037417839974723754
1714669054214017800,2.824017822265625,0.008100888869166373,-0.02090447553656995,0.04164899300476536
1714669054224091000,2.8340908203125,0.003601239362359047,-0.01568535264879465,0.03947324726772494
1714669054234163700,2.844163818359375,0.002692307823896408,-0.005387611322477459,0.03424611460343003
1714669054244236800,2.85423681640625,0.010173603489995003,-0.006431640482693911,0.04094984089261852
1714669054254310000,2.864309814453125,0.016464228066802023,-0.010685936926305293,0.04637858794308267
1714669054264382700,2.8743828125,0.0029857378125190733,-0.01712802573777735,0.0340791605386883
1714669054274456800,2.884456787109375,0.008798808005452156,-0.015037629329785704,0.02840897854832001
1714669054284530000,2.894530029296875,0.014625906723737717,-0.014313845099881291,0.030847430342156437
1714669054294602800,2.904602783203125,0.012227028888463973,-0.009487301726266741,0.05014307330944575
1714669054304675800,2.91467578125,0.005634206494688988,-0.01207768354564905,0.026228218709444626
1714669054314748700,2.924748779296875,0.00203998139500618,-0.009210019154846668,0.035844608441786836
1714669054324821800,2.93482177734375,0.016713818913698195,-0.021337313995882866,0.019542557799909262
1714669054334894800,2.944894775390625,0.012657821521162986,-0.012154548174142837,0.032350720177730545
1714669054344968700,2.95496875,0.007556114467978477,-0.0007450462136417627,0.03492158444589004
1714669054355041800,2.965041748046875,0.009803016611933708,-0.022038448002561925,0.023130051764706148
1714669054365115000,2.975114990234375,-0.004722936868667602,-0.012324644044041632,0.02828949862080626
1714669054375188000,2.98518798828125,0.02400514496564865,-0.010963950150087476,0.039081562802707775
1714669054385260800,2.9952607421875,0.027598201021552086,-0.017895356848463415,0.027220097557315602
1714669054395334000,3.005333984375,0.0005056114345788955,-0.015549743570387362,0.03775762985572219
1714669054405408000,3.015407958984375,0.006778115832805633,-0.014924159017950295,0.03326223639892414
1714669054415480800,3.025480712890625,-0.0025029227316379545,-0.022672069730982184,0.03453097769310698
1714669054425554000,3.035553955078125,0.0033300212055444715,-0.017534926038235425,0.017110343950614334
1714669054435626800,3.045626708984375,0.007062193471193313,-0.018318842957541347,0.026694310984387994
1714669054445699800,3.055699951171875,0.013344634741544723,-0.0192042474899441,0.031024686605203897
1714669054455773000,3.06577294921875,-0.0017798691540956495,-0.017119623235613106,0.016159363368712366
1714669054465845800,3.075845703125,0.01213525895178318,-0.0063401628069579595,0.020841913428064435
1714669054475919600,3.085919677734375,0.00897591813802719,-0.0041791123155504465,0.03349381666509434
1714669054485993000,3.095992919921875,0.005080664265155792,-0.02269735030271113,0.02940144191808067
1714669054496065800,3.106065673828125,0.009557517418265342,-0.025699966184794903,0.03449696582565084
1714669054506139000,3.116138916015625,-0.0003179799079895019,-0.016437047798931598,0.030059293905459344
1714669054516212000,3.1262119140625,-0.012749006935954094,-0.014204101115092634,0.026563935203524305
1714669054526285000,3.13628515625,0.016736030745506284,-0.012784516640752553,0.03425926634594798
1714669054536359000,3.14635888671875,0.011946458381414412,-0.013078677281737327,0.031192243458144364
1714669054546432000,3.156431884765625,-0.00018587796092033385,-0.01996602564267814,0.02600718723675236
1714669054556505000,3.166505126953125,-0.0027227029621601103,-0.012134309103712439,0.024027393330074847
1714669054566578000,3.176577880859375,0.0040092356413602825,-0.007921805975213646,0.03851360845533199
1714669054576650800,3.186650634765625,0.010136778610944747,-0.012459668600559234,0.02286117169545032
1714669054586723800,3.196723876953125,0.012230536019802092,-0.01814326719492674,0.03275226844963618
1714669054596797000,3.206796875,0.011185995402932166,-0.02805960798822343,0.035011472952738404
1714669054606870800,3.216870849609375,-0.00046703298985958095,-0.007672434324026108,0.028260637852502987
1714669054616943900,3.22694384765625,0.006283025792241096,-0.014330138647556305,0.014254817522177473
1714669054627017000,3.237016845703125,-0.0002922609448432922,-0.009818652572482824,0.029096869480935855
1714669054637090000,3.247090087890625,0.008685995280742645,-0.010737740178778767,0.021914465429866685
1714669054647163000,3.257162841796875,0.004199789777398109,-0.01528312852345407,0.012624704702850431
1714669054657236000,3.267236083984375,0.00523848517537117,-0.009792933609336614,0.022537346568563953
1714669054667310000,3.27731005859375,0.008391396248340606,-0.012633490797504782,0.01736803590557538
1714669054677383000,3.2873828125,0.01018938558101654,-0.027196123026683925,0.026788492073863742
1714669054687456000,3.2974560546875,0.025143793606758117,-0.00882313872911036,0.033007284390321
1714669054697528800,3.30752880859375,-0.0037467853128910064,-0.01662285269461572,0.034772695760801435
1714669054707602000,3.317601806640625,0.004634674063324928,-0.014866072155162691,0.017883218886097892
1714669054717675000,3.327675048828125,0.008367430850863456,-0.020615283331647513,0.02400790317831561
1714669054727748900,3.337748779296875,0.010620762735605239,-0.011156330917030572,0.02621226308848709
1714669054737821700,3.34782177734375,0.015261282017827033,-0.02660356396101415,0.0242005944725126
1714669054747895000,3.35789501953125,0.03247136001586914,-0.015243673295900225,0.017645994330430403
1714669054757968000,3.3679677734375,0.01660392879843712,-0.01215579028315842,0.02994696523793973
1714669054768041000,3.378041015625,0.01541910292804241,-0.020116686159744858,0.044760284292558204
1714669054778113800,3.38811376953125,0.01841419309079647,-0.005349909660592675,0.028131193653400985
1714669054788187000,3.398186767578125,0.002845452558994293,-0.015137509507685899,0.030868920654756948
1714669054798261000,3.408260986328125,0.011665887874364853,-0.010100757449492811,0.03336125806029886
1714669054808333800,3.418333740234375,0.004033785560727119,-0.01473638136088848,0.031202408659132194
1714669054818407000,3.428406982421875,0.0007288987964391708,-0.007687924154102802,0.0289363542901352
1714669054828480000,3.43847998046875,0.018376783689856527,-0.00832256879583001,0.032302058730414134
1714669054838552800,3.448552734375,0.008795885396003723,-0.01860935033671558,0.03040631724484265
1714669054848626000,3.4586259765625,0.007442717221379279,-0.001027297221124172,0.03333134697922505
1714669054858699800,3.46869970703125,0.01178454581797123,-0.0074934244953095905,0.027912454602494835
1714669054868772900,3.47877294921875,-0.0006266074657440185,-0.006886690773814916,0.01599096626555547
1714669054878846000,3.488845947265625,0.02122398981451988,-0.012626914926245809,0.027155864081531762
1714669054888918800,3.498918701171875,0.008353986847400664,-0.011574044872447847,0.02063760476130992
1714669054898991900,3.508991943359375,0.011349077010154723,-0.02206372857429087,0.024396418438712132
1714669054909065000,3.51906494140625,0.0019271686702966688,-0.024087051095440983,0.04117032437603921
1714669054919138000,3.529137939453125,0.0058066404521465295,-0.00032024493031203744,0.023396356284385546
1714669054929212000,3.5392119140625,0.006101239484548568,0.0009535013325512408,0.01718622219841927
1714669054939284700,3.54928466796875,0.011321604481339453,-0.006481909365206957,0.020614552679285407
1714669054949358000,3.559358154296875,0.012218261060118675,-0.001233414252474904,0.01651955671692267
1714669054959431000,3.569430908203125,0.009660977792739868,-0.01572458868063986,0.037906335877720264
1714669054969504000,3.57950390625,0.010252513945102692,-0.008757380016520619,0.03124610167038627
1714669054979576800,3.589576904296875,0.003066401833295822,-0.027588483345136045,0.018986184292472896
1714669054989651000,3.59965087890625,-0.014150105905532836,-0.040508389868587256,0.015466796260979026
1714669054999724000,3.60972412109375,0.005898410388827323,-0.038836218872666355,0.026237790255388242
1714669055009796900,3.619796875,0.010706687453389168,-0.02399352759309113,0.016437522722966967
1714669055019869700,3.62986962890625,0.011460720691084862,-0.01930178958028555,0.029887152208946645
1714669055029943000,3.639943115234375,0.0038531682968139646,-0.011380568126961588,0.029439371908828615
1714669055040016000,3.650015869140625,0.008948445609211922,-0.020008038153499365,0.025902493886416775
1714669055050089000,3.6600888671875,-0.012297171515226364,-0.019901435973867773,0.02058396574477665
1714669055060163000,3.6701630859375,-0.0015168343037366865,-0.01940057377964258,0.03620396153978072
1714669055070236000,3.68023583984375,0.006408697998523712,0.00011456629037857055,0.02012344469409436
1714669055080309000,3.69030908203125,0.023170447707176207,-0.008624912743270397,0.02600014557461254
1714669055090381800,3.7003818359375,0.023465046739578246,0.001147562599927187,0.026217304589785634
1714669055100455000,3.710454833984375,0.017173837640881536,-0.012091200614348053,0.022273818527860565
1714669055110528000,3.720528076171875,0.0025099369943141934,-0.016596330013871192,0.0148863842908293
1714669055120601900,3.730601806640625,0.026457214292883873,-0.007245879475027322,0.026649704657681284
1714669055130675000,3.740675048828125,0.009393851289153099,-0.009277312237396836,0.02721642602919601
1714669055140748000,3.750748046875,0.02989186491668224,-0.015547551613301038,0.016347679881891234
1714669055150820900,3.76082080078125,0.02315115848481655,-0.023837971705198288,0.03175775925326161
1714669055160894000,3.77089404296875,0.003103226712346077,-0.01222410627901554,0.026989238810352978
1714669055170966800,3.780966796875,0.01492635097503662,-0.008505524147301912,0.015010467328224331
1714669055181041000,3.791041015625,0.008341711887717247,-0.022718393090739846,0.01725529624610208
1714669055191114000,3.801114013671875,0.02030219879448414,-0.021107304632291195,0.02233538512252271
1714669055201186800,3.811186767578125,-0.00021627309918403624,-0.020743001364544034,0.021809973008930682
1714669055211260000,3.821260009765625,0.013989362385869026,-0.018698855251073836,0.018125667606154455
1714669055221332700,3.831332763671875,0.008288520395755767,-0.010744316050037742,0.02833612337466329
1714669055231406000,3.841406005859375,0.015153729990124702,-0.023669117944315074,0.026083933134237302
1714669055241479000,3.85147900390625,0.025922376763820646,-0.017918372397869826,0.02445124476533383
1714669055251552800,3.861552734375,0.026528525963425635,-0.020857859915867447,0.03181989210350439
1714669055261626000,3.871626220703125,0.01201543196439743,-0.0090664459656924,0.024566404710756613
1714669055271699000,3.881698974609375,-0.004587912312150002,-0.01602956297658384,0.023861763572739437
1714669055281771800,3.891771728515625,0.010977321088314056,-0.02758081149533391,0.004597319461312145
1714669055291844900,3.901844970703125,0.007376081725955009,-0.012947305987030268,0.00123129536062479
1714669055301917700,3.911917724609375,0.013950783941149712,-0.009220540548861025,0.031078809678927063
1714669055311991800,3.92199169921875,0.017978139761090278,-0.018313363064825533,0.03869789724736474
1714669055322065000,3.93206494140625,0.013041267880797385,-0.019854455026984213,0.03027594146397896
1714669055332137700,3.9421376953125,0.017978139761090278,-0.017924509877711534,0.02149750039312057
1714669055342211000,3.952211181640625,0.012590016981959343,-0.013735168429091572,0.0033930856375489382
1714669055352284000,3.962283935546875,-0.005516717594861984,-0.015684256670251487,0.014962573065888135
1714669055362357000,3.97235693359375,-0.00537350973188877,-0.014411825581640005,0.019864136170782146
1714669055372429800,3.982429931640625,0.007494155147671699,-0.015572101532667875,0.007263369465945288
1714669055382504000,3.99250390625,0.017364391776919366,-0.0029427754536271093,0.017657566037215293
1714669055392577000,4.002576904296875,0.021548399463295936,-0.010506780967116356,0.0231310746780131
1714669055402649900,4.01264990234375,0.015561726269125938,-0.02248012735545635,0.014305168603081255
1714669055412723000,4.022722900390625,0.004495557853579521,-0.020333689911291003,0.014991552565200253
1714669055422796000,4.032796142578125,0.015721885266900062,-0.014095672304555773,0.03425060811545699
1714669055432868900,4.042868896484375,0.013914543583989143,-0.0144185475833714,0.015255500731011852
1714669055442943000,4.05294287109375,0.017199556604027746,-0.018984321128949523,0.00997552363462746
1714669055453015800,4.063015869140625,0.010917699855566024,-0.014980200054123996,0.03213761628316715
1714669055463089000,4.0730888671875,0.009423661905527115,-0.018742402131855487,0.02382831796086393
1714669055473162000,4.083161865234375,-0.005080079743266105,-0.004375219409540295,0.028424669307796285
1714669055483234800,4.09323486328125,0.016627309674024583,-0.007642842903360724,0.03324969657775946
1714669055493307100,4.10330712890625,0.011990297523140906,-0.005881678449735045,0.022715342617128043
1714669055503380000,4.1133798828125,0.01917407154738903,-0.010102511015161872,0.027223522490262983
1714669055513454000,4.1234541015625,0.0021177228063344955,-0.016118848695233463,0.017455038335593417
1714669055523527200,4.133527099609375,-0.006568272474408149,-0.006765183285996317,0.028251020640786734
1714669055533600000,4.14360009765625,0.01048223104774952,-0.02478102470897138,0.017844613041914998
1714669055543673000,4.153673095703125,0.010179448708891868,-0.004391147631034255,0.0082134641318582
1714669055553746200,4.16374609375,-0.0023801731348037716,-0.013515242068096995,0.02482783212591894
1714669055563819300,4.1738193359375,0.00046761751174926756,-0.024969167692214248,0.01583270696392283
1714669055573893000,4.18389306640625,0.01288636958003044,0.00046250294521450996,0.018210834272112696
1714669055583966200,4.19396630859375,0.01872048256099224,-0.014945640197396278,0.025402709404425693
1714669055594039300,4.204039306640625,0.0031546646386384964,-0.017143661698326467,0.017293390633631497
1714669055604112100,4.214112060546875,0.013186229309439659,-0.017090031814947722,0.016274139721645042
1714669055614185200,4.224185302734375,0.01630582263469696,-0.007081774954497814,0.018971141986967994
1714669055624258000,4.234258056640625,-0.0004541735082864761,-0.010994345288351177,0.024002478084526956
1714669055634331100,4.2443310546875,0.007930208477377892,-0.009109992846474051,0.027002564082806928
1714669055644405200,4.2544052734375,-0.0008984101444482803,-0.006435293744504451,0.01814038111809641
1714669055654478000,4.26447802734375,0.0034369887113571166,-0.005031272165477276,0.018017658920725807
1714669055664551200,4.27455126953125,0.029181670820713042,-0.0019925620567053555,0.021870169630413872
1714669055674624300,4.284624267578125,0.017504677030444143,-0.010156871550902724,0.013578799690445884
1714669055684697000,4.294697021484375,0.0008919804036617279,-0.01956190182119608,0.025295157376723363
1714669055694770200,4.304770263671875,0.00957154594361782,-0.015840835471451282,0.026400533935893325
1714669055704844300,4.31484423828125,0.010917115333676338,-0.013736337472870945,0.006431284289667383
1714669055714917000,4.324917236328125,0.013466799816489218,-0.012940145593881605,0.016262266620760784
1714669055724990200,4.334990234375,0.006882745251059532,-0.01234575989730656,0.029069625280983745
1714669055735063000,4.34506298828125,0.002531564304232597,-0.00846636118069291,0.033450662509957325
1714669055745136400,4.355136474609375,0.011343231791257858,-0.009758227622136474,0.017787202032562344
1714669055755209200,4.365209228515625,0.012382511711120604,-0.012375497448444366,0.013507058761641383
1714669055765282000,4.375281982421875,0.007581248909235,-0.024341756508871912,0.0027753555980045345
1714669055775356200,4.385356201171875,-0.0008142389923334122,-0.004552914064005017,0.018168821761291472
1714669055785429200,4.39542919921875,-0.000983165818452835,-0.013285305769741535,0.01991835057605058
1714669055795502000,4.405502197265625,0.015163666862249374,-0.01761339810192585,0.008730272813886403
1714669055805575200,4.4155751953125,0.011553659671545029,0.009256927036494016,0.01689183322857134
1714669055815648000,4.42564794921875,0.01872574325799942,-0.00797090581394732,0.004081606757827103
1714669055825721300,4.435721435546875,0.006301730492711067,-0.0013492226518690585,0.009930259720794856
1714669055835795200,4.445795166015625,0.022623335218429564,-0.014516235804185271,0.018005320028960704
1714669055845868000,4.455867919921875,0.024115619602799416,-0.015056991617381572,0.013423545196652412
1714669055855941000,4.465941162109375,0.021268413478136062,-0.010203487171605229,0.010224529959633947
1714669055866014200,4.47601416015625,0.010638882914185523,0.004120440930873155,0.02768548657936044
1714669055876087300,4.48608740234375,0.01347849025428295,-0.004478241392597556,0.02902890967810526
1714669055886160100,4.49616015625,0.024714170017838478,-0.005363134468346834,0.01520920477071777
1714669055896233000,4.50623291015625,0.0153150580316782,-0.008673647255823015,0.03862590972338803
1714669055906307300,4.516307373046875,0.011738953110575675,-0.001035626658052206,0.025701527954218907
1714669055916380200,4.526380126953125,0.008449263915419577,-0.012085939917340874,0.012527500539226457
1714669055926453000,4.536452880859375,-0.004108604362607002,-0.02654671920724213,0.005059886338608339
1714669055936526000,4.546526123046875,0.0217938986569643,-0.0015672493167221545,0.008497550903400406
1714669055946599200,4.55659912109375,-0.003193243083357811,-0.017300971151888368,0.01354032171042636
1714669055956672300,4.56667236328125,-0.008279168045520782,-0.01864157210588455,-0.005130074631143361
1714669055966746000,4.57674609375,-0.001104161849617958,-0.005376432341337204,-0.009921802419703453
1714669055976819000,4.58681884765625,0.0008393734335899353,-0.01061550203859806,-0.005592294448567554
1714669055986892300,4.596892333984375,0.012979893082380295,-0.01643828990794718,0.004338248400017619
1714669055996965000,4.606965087890625,0.01641688179373741,-0.004437178729847073,0.01081378282336518
1714669056007038200,4.6170380859375,0.014634674552083015,-0.021846724822744724,0.035464221688918766
1714669056017111000,4.627111083984375,0.011496961048245428,-0.01428366915732622,0.015476860997267066
1714669056027184000,4.63718408203125,0.01822889965176582,-0.012632394818961619,0.015365884036617353
1714669056037258200,4.64725830078125,0.00012625672817230223,-0.013887363316118716,0.02393787928256206
1714669056047331000,4.6573310546875,0.012536825489997863,-0.017679449075460433,0.03335974195664748
1714669056057404200,4.667404052734375,0.011346738922595977,-0.01448956699296832,0.022333074434427544
1714669056067477200,4.677477294921875,0.021228665989637373,-0.003507058272883296,0.01595460717738606
1714669056077550000,4.687550048828125,0.027065701580047605,-0.0005381254646927118,0.020340311448322608
1714669056087623200,4.697623046875,0.008361001110076904,-0.019092896069958804,0.03487938013882376
1714669056097697300,4.707697265625,0.007311784318089484,-0.01877389324866235,0.008963889773515983
1714669056107770000,4.71777001953125,0.013605331504344939,-0.0028743133272975683,0.01316146019436419
1714669056117843200,4.72784326171875,0.024532968232035636,-0.003974310458451509,0.02319245860958472
1714669056127916000,4.737916015625,-0.004810030630230903,-0.01350070208609104,0.019720142856519667
1714669056137989000,4.747989013671875,0.0013227730363607406,-0.0045035219643265005,0.010992783518927171
1714669056148062200,4.758062255859375,0.0017734394133090972,-0.007821049014478922,0.006786034277779981
1714669056158135300,4.76813525390625,0.009396189376711845,-0.02687339387834072,0.017731635920424014
1714669056168209200,4.778209228515625,0.020750527083873746,-0.014520108261704445,-0.004736517869448289
1714669056178282200,4.7882822265625,-0.00020516718327999114,0.003797638717293739,-0.004904531380115077
1714669056188355300,4.798355224609375,-0.0003612345278263092,-0.009453983978554606,-0.008519570938963442
1714669056198428200,4.80842822265625,0.0014344167172908782,-0.010237608636915684,0.011000263572484254
1714669056208501000,4.8185009765625,0.02163666226863861,-0.02971855417639017,-0.0028885610483586786
1714669056218574000,4.828573974609375,0.012350363007187842,-0.021680720606073737,0.023955551936570552
1714669056228648200,4.838648193359375,0.010998363876342773,-0.03133811820223927,0.01516452537877485
1714669056238721000,4.848720947265625,0.028646833291649815,-0.025838717068359253,0.01917832759739831
1714669056248794000,4.858794189453125,0.02280395248234272,-0.025140286475419996,0.0123448374486994
1714669056258867200,4.8688671875,-0.00023790040910243987,-0.017832155419141054,0.023057488851994275
1714669056268940300,4.878940185546875,-0.003674889120459556,-0.02149981108121574,0.007780424743145704
1714669056279013000,4.88901318359375,0.003803483936190605,-0.003826645616069436,0.009662137703364715
1714669056289086200,4.899086181640625,0.01637713430523872,-0.014814999555051327,-0.00779383221399039
1714669056299160300,4.909160400390625,0.014732289707660674,-0.013811083209514618,0.002488391882786527
1714669056309233200,4.919233154296875,0.009943301865458488,-0.01709068940207362,0.014493055857997386
1714669056319306200,4.92930615234375,0.013534019833803175,-0.015742489663511515,0.03238151717479341
1714669056329379000,4.939379150390625,0.0003577273964881897,-0.008452844111993908,0.016254987496603278
1714669056339452200,4.9494521484375,0.00948445218205452,-0.015776976455003023,0.00018467238452285527
1714669056349525200,4.959525146484375,-0.007119476616382598,-0.00851860282458365,0.01905264625796117
1714669056359598000,4.96959814453125,0.010398059895634651,-0.01941737878397107,-0.004118157642241567
1714669056369672000,4.979671875,0.006357844594120979,-0.017309081393107772,0.0034525333403609693
1714669056379745300,4.989745361328125,0.00964694926738739,-0.019249182610213755,0.01547823097044602
1714669056389818000,4.999818115234375,0.016229834789037705,-0.02914185026697814,0.01792994410465471
1714669056399891200,5.00989111328125,0.010556465327739715,0.00013962766639888285,0.0016726641862653195
1714669056409964000,5.019964111328125,0.00846446148455143,-0.0033560324296355248,0.02388150945282541
1714669056420037400,5.030037353515625,0.01549625981748104,-0.01246105684004724,0.0095352873201482
1714669056430111200,5.040111328125,0.00606850625872612,-0.010957812670245766,0.010597701520426198
1714669056440184000,5.05018408203125,0.010707271975278853,-0.01588606285266578,0.01797971066366881
1714669056450257200,5.060257080078125,0.0006833060890436172,-0.0006531301464885472,0.012857289616018532
1714669056460330200,5.070330322265625,0.015626608198881148,-0.013707257508859037,0.02138924511251971
1714669056470403000,5.080403076171875,-0.0011409867286682129,-0.005060279064252973,0.02188470961241983
1714669056480476200,5.09047607421875,0.014867314264178276,-0.004750993919372558,0.012580993425287306
1714669056490549200,5.10054931640625,0.018003274202346802,-0.02578486798927188,0.023369934068340807
1714669056500623000,5.110623046875,0.0004845686465501785,-0.018181918704882262,0.011977949498221277
1714669056510696400,5.120696533203125,0.010809563305974006,-0.01444331669844687,0.01823063495112583
1714669056520769300,5.130769287109375,0.018439327532052994,-0.007531345352903008,0.016906619805749503
1714669056530842400,5.14084228515625,0.0031838907331228255,-0.008235913425683975,0.018504419524362308
1714669056540915200,5.150915283203125,0.002142272725701332,-0.0003892185132950544,0.013981654003448784
1714669056550988500,5.160988525390625,0.0004921674311161041,-0.011712649625539778,0.01928743226137012
1714669056561062400,5.1710625,0.003350479471683502,-0.011760215094313025,0.018553966887667774
1714669056571135200,5.18113525390625,-0.004728782087564468,-0.011048851954564452,0.013010690079443155
1714669056581208300,5.191208251953125,-0.008021393892168998,-0.010295403238758443,-0.016831819270178676
1714669056591281400,5.201281494140625,0.007851298022270203,-0.011202800407260656,0.007176577098481357
1714669056601354200,5.211354248046875,0.004869067341089248,-0.01613455772101879,-0.0021238146204035726
1714669056611427300,5.22142724609375,0.01699848107397556,-0.007880231855809688,0.005982179682143032
1714669056621500200,5.231500244140625,0.009520692539215087,-0.012581979805976152,0.010410554051026701
1714669056631574300,5.24157421875,0.009520692539215087,-0.010646920090168713,0.019925136509863658
1714669056641647400,5.2516474609375,0.004282791885733604,-0.006157572781667113,0.020587226280942558
1714669056651720200,5.26172021484375,0.002480126377940178,-0.012658479108288883,0.010210464901663363
1714669056661793300,5.271793212890625,0.018183891466259955,-0.023038345760107038,0.016120803190302103
1714669056671866400,5.281866455078125,0.02235387062728405,-0.008426540626958011,-0.0022287271664477885
1714669056681939500,5.291939453125,0.0008089782953262329,-0.006537731205672025,0.004781197261391207
1714669056692012300,5.30201220703125,0.006205284380912781,-0.01788973082527518,0.01912291674888693
1714669056702086100,5.312086181640625,-0.0030669863551855085,-0.029357027387619018,0.008746922554587944
1714669056712159500,5.322159423828125,0.011896774020791053,-0.0025966654296964405,0.011233624803787097
1714669056722232300,5.332232421875,-0.0008300210833549499,-0.00939487420246005,0.006778554224222898
1714669056732305400,5.342305419921875,0.0032078561305999755,-0.010734233047440648,0.010984828541334719
1714669056742378200,5.352378173828125,-0.001875146222114563,-0.0034769553955644366,0.020860462864907458
1714669056752451300,5.362451416015625,0.01294131463766098,-0.009938041168451308,-0.0007901091980747878
1714669056762525400,5.372525390625,0.011437339815497398,-0.01283938863314688,-0.0039806123350746925
1714669056772598300,5.382598388671875,0.007845452803373336,-0.0037177053488790988,0.00861268344935961
1714669056782671000,5.392671142578125,-0.01084638818502426,-0.013183891221880913,0.028958812717115506
1714669056792744400,5.402744384765625,0.009201543587446213,-0.0011642214737832546,0.024512637830059972
1714669056802817300,5.4128173828125,0.013835048606991767,0.001762771888822317,0.013522219798155127
1714669056812890400,5.422890380859375,0.012342764222621917,-0.014299889639765024,0.0035522125888615844
1714669056822963200,5.432963134765625,0.009199790021777152,-0.024618016166985033,-0.003640566725749522
1714669056833037300,5.443037353515625,0.023567922592163084,-0.01686345651745796,0.004196218713978305
1714669056843110400,5.4531103515625,0.019970190361142157,-0.01019917632266879,0.00656922232247889
1714669056853183200,5.463183349609375,0.0018675474375486373,-0.005901552193984389,0.029060300330212337
1714669056863256300,5.47325634765625,0.008292027527093886,-0.009655570965260266,0.004254232511529699
1714669056873329400,5.483329345703125,0.010985504394769668,-0.006827873258665204,0.006410122770629823
1714669056883402200,5.49340234375,0.014729951620101928,-0.00793714967481792,0.010768929901486262
1714669056893476400,5.503476318359375,-0.008477320966124535,-0.00042231706529855727,0.025648172065475955
1714669056903549400,5.513549560546875,0.016057985353469847,-0.007980331229418516,0.01579743472114205
1714669056913622300,5.523622314453125,0.00632861849963665,-0.015288170024752615,0.009460313254641368
1714669056923695400,5.5336953125,0.015303367593884468,-0.015847119081765414,0.02616625025598332
1714669056933768200,5.543768310546875,-0.004607786056399345,-0.004799655366688966,0.025585217231325803
1714669056943841300,5.55384130859375,0.015438976672291755,-0.019698241551965475,0.0104539091355633
1714669056953914400,5.563914306640625,0.017057517784833907,-0.00544357929341495,-0.0044882239304948595
1714669056963988200,5.57398828125,0.0015109890848398208,-0.006113076052814722,0.002145953386975452
1714669056974061300,5.584061279296875,0.014829904863238335,-0.009007847646251321,0.006205037785740569
1714669056984134400,5.594134521484375,0.003915712139010429,-0.004648702588677406,-0.0019351419141981749
1714669056994207500,5.60420751953125,0.015576923838257789,-0.00915251681394875,0.03576446501081809
1714669057004280300,5.6142802734375,0.00855330881178379,-0.002978869680315256,0.020847932176897302
1714669057014353200,5.624353271484375,0.02188274598419666,-0.0061349956236779685,0.014685381826013326
1714669057024426200,5.63442626953125,0.01409632989168167,-0.011167217637225986,-0.0008702982948161661
1714669057034500400,5.644500244140625,0.012443886509537696,-0.0033342589892446993,0.016880407652258872
1714669057044573200,5.6545732421875,0.014543489137291907,-0.009687500473484396,0.007097821907000616
1714669057054646300,5.664646240234375,-0.012239888370037078,0.002104205737635493,0.007800353286322206
1714669057064719400,5.67471923828125,0.007518120545148849,0.005319587587565183,0.012725023272167891
1714669057074792400,5.68479248046875,0.03025193040072918,-0.0168508892968297,0.002536423142440617
1714669057084865300,5.694865234375,0.00017126491367816925,-0.022944895322993396,0.014158544940315185
1714669057094939100,5.704939208984375,0.010036825367808342,-0.012053791213408112,0.019694241230282933
1714669057105012500,5.715012451171875,0.02394844634234905,-0.015562018530070781,0.021947490916633977
1714669057115085300,5.725085205078125,0.0009141922354698181,-0.005805617538839578,0.0034676030453294512
1714669057125158400,5.735158447265625,0.017090835532546044,-0.01872581632323563,0.0012734631350729613
1714669057135231200,5.745231201171875,0.018592472267150877,-0.014166691714152692,0.009426785444375127
1714669057145304300,5.75530419921875,0.013515899655222891,-0.00925378523133695,0.004439443752169609
1714669057155377400,5.76537744140625,0.014407880058884619,-0.0012394056018441915,0.01196993058854714
1714669057165451300,5.775451171875,0.010359481450915337,-0.017151406613364815,0.009050883070379495
1714669057175524400,5.7855244140625,0.010641805523633956,-0.010811828328296542,0.021525082519790156
1714669057185597400,5.795597412109375,0.00046352585852146145,-0.0007768295913934707,0.013670359564572573
1714669057195670300,5.805670166015625,-0.008825111490488051,-0.011252484767884015,0.006368731314316391
1714669057205743400,5.815743408203125,0.013613514810800552,-0.009359949019551277,0.013107474117958918
1714669057215816200,5.825816162109375,-0.012725041538476943,0.0017402677960693836,0.01670127909253351
1714669057225889300,5.83588916015625,0.006284779357910156,-0.020640198577195405,0.01635054769241251
1714669057235963400,5.84596337890625,0.010327332746982575,-0.0056960196845233435,-0.0023065873087849465
1714669057246036200,5.8560361328125,0.009866729497909545,-0.01558415729664266,-0.005524773037154227
1714669057256109300,5.866109375,0.010308043524622917,-0.012359203900769352,0.01021898613483645
1714669057266182400,5.876182373046875,0.009992986226081848,-0.010944514797255396,0.005349800062738359
1714669057276255500,5.88625537109375,0.009997077879309653,-0.0021841391060501334,0.01184609414632432
1714669057286328300,5.896328369140625,0.02600537887215614,-0.01036072355993092,0.002178485683398321
1714669057296402200,5.906402099609375,0.008803484180569648,-0.002226005486398935,0.020848480166168883
1714669057306475500,5.9164755859375,0.008646832314133643,-0.0027322014428675175,0.01366315350565128
1714669057316548400,5.92654833984375,0.024359949752688407,-0.0021615619480609893,-0.017733407752402126
1714669057326621200,5.93662109375,0.00879471635222435,-0.009760784905403852,-0.0016086407730355858
1714669057336694300,5.9466943359375,0.005059036955237389,-0.011198270362615585,0.0005026705588214099
1714669057346767400,5.956767333984375,0.008351064237952233,-0.005511529963091015,-0.005646417522290721
1714669057356840400,5.96684033203125,0.019708909076452254,0.005269903226941823,0.0005890519343316555
1714669057366914300,5.976914306640625,-0.0033329438149929044,-0.0029975743807852265,0.02246217157365754
1714669057376987100,5.986987060546875,0.010885551151633262,-0.018901026759669183,0.022617197738587856
1714669057387060500,5.997060546875,0.015665771165490148,-0.006380421752110123,0.007158210324728861
1714669057397133300,6.00713330078125,0.00430734180510044,-0.023781857603788373,0.0058772854024078695
1714669057407206400,6.017206298828125,0.0010024550408124922,0.010781871581450104,0.008770029435539617
1714669057417279200,6.027279296875,0.007133505141735077,-0.010131883240118622,0.021624542572582138
1714669057427353300,6.037353271484375,0.015057283878326415,-0.011849500812962651,0.019738445698190478
1714669057437426400,6.047426513671875,0.009068857118487358,-0.006579962912201881,-0.0022926318486686794
1714669057447499300,6.057499267578125,0.013999299257993697,-0.013369038530439137,0.021584210562193763
1714669057457572000,6.067572021484375,0.000671031129360199,-0.0074099109303206205,0.012952877211291342
1714669057467645400,6.0776455078125,0.01128653316795826,-0.016113807193934918,0.0030107717890758066
1714669057477718300,6.08771826171875,0.007694646155834197,-0.015192381500080227,0.01062329261940904
1714669057487791900,6.0977919921875,0.008003273713588714,-0.012329247153922914,0.00010840141107328236
1714669057497866000,6.107865966796875,0.015772738671302796,-0.012331658306717872,0.009021510845422744
1714669057507938800,6.117938720703125,0.005891980648040771,0.001189209784567356,0.003422667925059795
1714669057518012000,6.128011962890625,0.014866729742288589,0.011998992286249994,0.002041123039321974
1714669057528084700,6.138084716796875,0.02533843939602375,-0.004431260445713996,0.006885147270699963
1714669057538157800,6.14815771484375,0.011566519153118134,-0.009000321926921606,0.022148968305485323
1714669057548231000,6.15823095703125,0.01994096426665783,-0.02329845800101757,0.0047924584409222
1714669057558303700,6.1683037109375,0.006031096857786179,-0.005432984834164381,-0.003943988385424018
1714669057568377900,6.1783779296875,0.01202887596786022,-0.017720073346793652,0.006358255586074665
1714669057578451000,6.188450927734375,0.010092939469218253,-0.009624956631287932,0.010003233625460415
1714669057588523800,6.198523681640625,0.024454642298817632,-0.007636120901629328,0.012848393923509865
1714669057598596900,6.208596923828125,0.01053834514915943,-0.004482552241533994,0.017862751486804336
1714669057608669700,6.218669677734375,0.01593114410340786,-0.008737360141798853,0.0040292646492365745
1714669057618742800,6.22874267578125,0.016226327657699584,-0.01122442771717906,0.017199812332354486
1714669057628816000,6.23881591796875,0.0006686930418014526,-0.011444061817228793,0.01789376767957583
1714669057638889700,6.2488896484375,0.018615268620848655,-0.010105579755082725,0.012109384725010022
1714669057648962800,6.258962890625,0.010071896681189536,0.0065237757455557585,0.012039516092883422
1714669057659036000,6.269035888671875,0.014715338572859763,-0.005369345013424754,0.009725951054040342
1714669057669109000,6.27910888671875,0.0094809450507164,-0.004356587774306536,0.015847968465136364
1714669057679181800,6.289181884765625,0.005285831448435783,-0.0013001228131353855,0.027967353994352743
1714669057689254700,6.299254638671875,0.005881459254026412,-0.007259177348017692,0.00945117096696049
1714669057699329000,6.3093291015625,0.004537643429636955,-0.009099690648168325,0.004791636457014829
1714669057709401900,6.31940185546875,0.010524316623806953,0.003924041575938463,0.004622106842696667
1714669057719474700,6.329474609375,0.0015419687449932098,0.0023347265578806398,0.0022649127246811983
1714669057729547800,6.3395478515625,-0.002793430110812187,-0.010284151192381977,-0.001925177642609924
1714669057739620900,6.349620849609375,-0.0006903203517198563,-0.005607318487763404,0.0037243268859107046
1714669057749694000,6.35969384765625,0.006206453424692154,-0.012224252409487962,0.006397263289056718
1714669057759766800,6.369766845703125,0.005000000244379043,-0.012251944134011863,0.006365808704867959
1714669057769840600,6.379840576171875,0.009341828840970992,-0.004829612113535404,0.011395372970448805
1714669057779914000,6.3899140625,0.0023111995518207548,-0.015035875764116644,-0.007442123566335067
1714669057789986800,6.39998681640625,0.01099018056988716,-0.007704217701777816,-0.0013260335725266486
1714669057800060000,6.410059814453125,0.02416296587586403,0.0024033348146826027,0.03246279311692342
1714669057810132700,6.4201328125,0.00035889644026756285,0.005547916450724005,0.016311339060030877
1714669057820205800,6.430205810546875,0.025197569620609282,0.005707490926608443,-0.003951431906362995
1714669057830279000,6.44027880859375,0.009042553633451461,-0.00008059095554053783,0.01293207188528031
1714669057840352800,6.450352783203125,0.01607844361960888,-0.0014686843130737543,0.018752695197006685
1714669057850425600,6.460425537109375,0.010704349365830422,-0.0029741935051977634,0.006809771346393973
1714669057860499000,6.4704990234375,0.016695698735117913,-0.022509791841357946,0.00005105433380231261
1714669057870571800,6.48057177734375,0.010859832188487052,-0.004682970184460282,0.0036107287099119275
1714669057880644900,6.490644775390625,0.003676642686128616,-0.013052812188118695,0.005570484475558623
1714669057890717700,6.5007177734375,-0.0005178863942623138,-0.022579130750522015,-0.0062852360156364735
1714669057900791800,6.510791748046875,0.006665303108096122,-0.025438684900104997,0.00619296375545673
1714669057910865000,6.520864990234375,-0.0058913961261510845,-0.025173019701242444,0.008365366757940501
1714669057920937700,6.530937744140625,0.0038560909062623975,-0.012133651516586541,0.02906504957056604
1714669057931010800,6.5410107421875,0.01583995868861675,-0.01770239155963063,0.02239498808896169
1714669057941084000,6.551083984375,0.02031739636361599,-0.010228621612861751,0.020083267947332933
1714669057951156700,6.56115673828125,0.01268295596241951,-0.01857997811175883,0.007890305725252256
1714669057961229800,6.571229736328125,0.008493103057146073,0.0011700666926801205,0.001568427493656054
1714669057971304000,6.581303955078125,-0.0009328969359397888,0.003106953039392829,0.00866199335064739
1714669057981376800,6.591376708984375,0.011927753680944442,-0.0026396277885884045,0.004953366357367485
1714669057991449900,6.601449951171875,0.01086860001683235,-0.0047239597819745535,0.013416238673031329
1714669058001522700,6.611522705078125,-0.003951367974281311,-0.008083718538656831,0.01885951657234691
1714669058011595800,6.621595703125,0.00547463201880455,-0.009552768177911638,0.0035094511593692004
1714669058021668900,6.6316689453125,0.009063596421480179,-0.015339169559627771,0.001994416087074205
1714669058031742000,6.641741943359375,0.01743862605690956,0.0029980858374387023,0.010984280552063137
1714669058041815800,6.65181591796875,0.009655717095732689,-0.0022111732434481383,0.016415895413048564
1714669058051888600,6.661888671875,0.0027642040163278576,-0.007936930479109287,0.006871484071528539
1714669058061962000,6.6719619140625,0.014576222363114356,-0.008546586810052395,0.00263645858396776
1714669058072034800,6.682034912109375,0.01156710367500782,-0.002326835512369871,0.0021682474171742794
1714669058082108000,6.69210791015625,-0.004140753066539764,-0.0031216391518712043,0.008246635749097913
1714669058092180700,6.7021806640625,0.025479309171438216,0.0005823299326002597,0.011853300205245613
1714669058102253800,6.71225390625,0.014091653716564177,-0.009555106265470384,0.00726922381799668
1714669058112328000,6.722327880859375,-0.0028296704679727554,-0.006110153443366289,0.012922710401890799
1714669058122400800,6.73240087890625,0.008092705562710762,-0.008664075709879399,0.0019552622536197304
1714669058132473600,6.7424736328125,0.0038911622196435925,-0.008358663022518158,0.014130305226519703
1714669058142547000,6.752546875,0.0058270987182855605,-0.012726283647492528,-0.0020487583565060048
1714669058152619800,6.762619873046875,0.022284897044301033,-0.006707900140807032,-0.0017213438998907803
1714669058162692900,6.77269287109375,0.0034299744486808773,-0.003549363044649362,-0.0032824283373076467
1714669058172767000,6.78276708984375,0.00941080242395401,0.008169277930259703,0.006634926236141473
1714669058182839800,6.79283984375,0.007463760009407997,-0.011136822498962282,0.01200671893497929
1714669058192913000,6.802912841796875,0.007613982135057449,-0.012194441793113946,-0.0016633940344210714
1714669058202985700,6.81298583984375,0.011949965512752533,-0.01962042707540095,0.01636685037324205
1714669058213058800,6.823058837890625,0.01958615947961807,-0.0072537705205380915,0.00104608411998488
1714669058223132000,6.8331318359375,0.015232055923342704,-0.014539762810245155,0.017082369098300115
1714669058233204700,6.843204833984375,-0.005279986229538917,-0.0032999183282256123,0.006848632918903604
1714669058243278800,6.85327880859375,0.011168459746241569,-0.010489829832315445,0.0006616148470435291
1714669058253352000,6.86335205078125,-0.003203764477372169,0.0014156389515846968,0.022443284210097045
1714669058263424800,6.8734248046875,-0.0009597849428653717,-0.015799480547755956,0.005279602637048811
1714669058273497900,6.883497802734375,-0.0012526304095983505,-0.01468574715219438,-0.0007031433006748557
1714669058283570700,6.89357080078125,0.006083703827857971,-0.007577084190770984,0.006751136494334787
1714669058293643800,6.903643798828125,0.016243278792500496,-0.003651873571053147,0.003795793820079416
1714669058303716900,6.913716796875,0.017139350849390028,-0.007819003187865018,0.000797333523305133
1714669058313790700,6.923790771484375,0.006827800193428993,-0.004841814007982611,0.00008216185811907053
1714669058323863800,6.93386376953125,0.020005261674523354,-0.012007906245067715,0.003930169922625646
1714669058333937000,6.94393701171875,-0.004080547311902046,-0.012238646261021495,0.019001573657849803
1714669058344010000,6.954010009765625,0.0011555997759103774,-0.006829699889570474,0.010801106004882603
1714669058354082800,6.964082763671875,0.024043723410367965,-0.007182166589051485,0.00850314952712506
1714669058364155600,6.97415576171875,0.019694880551099775,-0.008860694260522722,0.01894515816234052
1714669058374228700,6.984228759765625,0.01654021591246128,-0.008404621056094765,0.021632369686011222
1714669058384302800,6.994302734375,0.017293664628267286,-0.016112784280627963,0.015418573205079883
1714669058394375700,7.004375732421875,-0.0051543140232563015,-0.0009597118776291608,-0.006958568699937313
1714669058404448800,7.01444873046875,0.005907762739062309,-0.00963810837380588,-0.007534076166106387
1714669058414521900,7.02452197265625,0.0036731355547904966,-0.012920856371521948,-0.004429470347426832
1714669058424595000,7.034594970703125,0.02238251219987869,-0.005961757948622107,-0.009326265945658087
1714669058434667800,7.044667724609375,0.0033685996502637863,-0.012871318141371012,0.0017116262234747408
1714669058444741600,7.05474169921875,0.014437690675258635,0.0028986440509557723,0.006206974014500156
1714669058454815000,7.06481494140625,0.005750526350736617,-0.007168138063699006,0.009365593309048563
1714669058464887800,7.0748876953125,0.019070611172914503,-0.003006049948185682,-0.0024095636260695755
1714669058474961000,7.0849609375,0.019066519519686697,-0.018821239521726964,-0.008725404842523857
1714669058485033700,7.09503369140625,0.016236849051713943,-0.012862258052080869,-0.019835174937779084
1714669058495106600,7.1051064453125,0.010703764843940734,-0.011397811522707342,-0.0034130781128071247
1714669058505179600,7.1151796875,0.008303133442997932,-0.0033810938056558367,0.01407387146470137
1714669058515253500,7.12525341796875,-0.0002256254494190216,-0.0035498014360666272,0.00565954186534509
1714669058525326600,7.13532666015625,0.0017348609685897826,-0.0006158668760210275,0.004983724963013083
1714669058535399400,7.1453994140625,0.006219897428154945,-0.011928776594251393,0.006659421356581151
1714669058545472500,7.155472412109375,0.014449965634942054,-0.021958368503674865,0.022765319238696246
1714669058555545600,7.165545654296875,-0.00007657236754894256,-0.0011522387750446796,-0.004567892437428236
1714669058565618400,7.175618408203125,0.008446341305971146,-0.00002586509361863136,0.0017049316212069242
1714669058575691500,7.18569140625,0.010395137286186218,-0.006334536783769726,0.004958334793429822
1714669058585765600,7.195765625,0.018920973569154738,0.0037503655094653365,0.009116093793697655
1714669058595838500,7.20583837890625,0.008006780844926833,-0.012983473278954624,0.011508359225094317
1714669058605911600,7.21591162109375,0.004726444000005722,-0.01897255762591958,0.004305232046404853
1714669058615984400,7.225984375,0.00907528685927391,-0.0013063333582133054,0.014484753820532933
1714669058626057700,7.2360576171875,0.015201660785079002,0.00016688099950551986,0.011427777402708306
1714669058636130600,7.246130615234375,0.015336685341596603,0.007986249513551593,0.016792172246379775
1714669058646203400,7.256203369140625,0.016537293303012846,0.0015065321054309605,0.016944330600788815
1714669058656277500,7.266277587890625,0.022371406283974646,-0.012700053227692841,0.016732605812558903
1714669058666350600,7.2763505859375,0.01204115092754364,-0.01086238947175443,0.013514127823244779
1714669058676423400,7.28642333984375,0.007689385458827018,0.001709945723041892,0.00974966985634528
1714669058686496500,7.29649658203125,0.010828852528333663,-0.022191738868132232,0.006063820950454101
1714669058696569300,7.3065693359375,0.011283026036620139,-0.01747925032824278,0.023918535261275246
1714669058706642700,7.316642578125,-0.002335164949297905,-0.004430091401934623,0.014911418267386033
1714669058716715500,7.326715576171875,0.00874152486026287,-0.011681523834913969,0.001273682330781594
1714669058726789400,7.336789306640625,0.016232757398486137,-0.01018763201534748,0.0007478774915449321
1714669058736862500,7.346862548828125,0.01637245813012123,-0.008713175548613072,0.008819339336827397
1714669058746935600,7.356935546875,0.013394903624057769,-0.0006729308255016803,0.018174045925680546
1714669058757008600,7.367008544921875,0.011606266641616821,0.0013551409360021353,0.012024007996497676
1714669058767081500,7.37708154296875,0.006657704323530197,0.005530819185450672,0.024586187123460692
1714669058777154600,7.387154541015625,0.015179448953270912,-0.01173749180585146,-0.00017413272419944406
1714669058787227600,7.3972275390625,0.007532149070501327,-0.0045019875943660735,0.010449379090918228
1714669058797301500,7.407301513671875,0.003776595929265022,0.0024199936885386706,0.005660537379188463
1714669058807374600,7.41737451171875,0.018428806138038635,0.003500044010207057,0.011062387289572507
1714669058817447400,7.427447509765625,0.012145780345797538,-0.00714358814433217,0.007516896702442317
1714669058827520500,7.4375205078125,0.01573240666091442,-0.014415624973922967,0.013015768113359808
1714669058837593600,7.447593505859375,0.010948094993829727,-0.006541311402246355,-0.006724303286336362
1714669058847666400,7.45766650390625,0.01632978803217411,-0.005262085246667265,0.0014654511763714253
1714669058857740500,7.467740478515625,-0.0029728783309459685,-0.00020414426997303963,0.022693121652165426
1714669058867813600,7.477813720703125,0.01319090548455715,-0.003397971875220537,0.011066031418228522
1714669058877886500,7.487886474609375,0.00796294170320034,-0.01968545513562858,0.0008687547917012125
1714669058887959600,7.49795947265625,0.003323591464757919,-0.005613236771896481,0.015673890539864076
1714669058898032400,7.508032470703125,0.0073678984194993965,-0.0012014847442507743,0.01805105886682868
1714669058908105700,7.518105712890625,-0.0007172083586454391,-0.005489391196519136,-0.00359542154292576
1714669058918178600,7.528178466796875,0.009164718708395957,0.002689312149211764,0.004345500124711543
1714669058928252400,7.53825244140625,-0.007300093880295753,-0.00009315817616879939,-0.0007368720403406768
1714669058938325800,7.54832568359375,0.0004693710774183273,-0.013411635563150047,-0.0037513701564632356
1714669058948398600,7.558398681640625,0.016933014622330666,-0.005651596020907163,0.013773381547629832
1714669058958471400,7.568471435546875,0.009437105908989905,0.0006662088237702846,0.001976149778021499
1714669058968544500,7.57854443359375,0.0015039748221635817,-0.00557137039154768,0.006307447847444564
1714669058978617300,7.588617431640625,0.009292144480347634,0.009452376543357968,0.009611192967416717
1714669058988690700,7.598690673828125,-0.002379588612914085,-0.002053425398468971,-0.0031387181508354843
1714669058998764500,7.6087646484375,0.005107552272081375,-0.001677285562455654,-0.0018283844709396362
1714669059008837400,7.61883740234375,-0.0010123919129371643,-0.006205649707093835,0.0006253927561920136
1714669059018910700,7.62891064453125,0.014391513445973395,-0.0011654635827988385,0.017742796635255218
1714669059028983600,7.638983642578125,0.019315525844693184,-0.017278174798190594,-0.001478949978761375
1714669059039056600,7.649056640625,-0.0016278934627771376,-0.01180062016993761,0.006890882891742512
1714669059049129500,7.65912939453125,0.0019686697244644166,-0.014253566280007362,0.016376741579594088
1714669059059202600,7.66920263671875,0.021270167043805122,-0.011688684228062629,0.004693948236200958
1714669059069276700,7.679276611328125,0.013628712379932403,-0.007254866499081253,0.0047746031238231805
1714669059079349500,7.689349609375,0.008832125753164291,0.011685834683850408,-0.0004681289684027433
1714669059089422600,7.699422607421875,0.003887655088305473,-0.006058569386601448,0.010315560110798105
1714669059099495400,7.709495361328125,0.022286066088080404,0.0027056056968867777,0.004563727718964219
1714669059109568500,7.719568603515625,0.005973229190707206,-0.0022023323498666287,0.0072357142740394915
1714669059119641600,7.7296416015625,0.0025350714355707165,-0.019481968452781436,-0.0014538246706593781
1714669059129714400,7.73971435546875,0.0077770637422800055,-0.004410071527212858,0.009738490875205024
1714669059139788500,7.74978857421875,0.01840074908733368,0.003047258741408586,0.010885925610968843
1714669059149861600,7.759861572265625,0.004633505019545555,-0.002625745393708348,0.009891991803329437
1714669059159934500,7.7699345703125,-0.0034457565397024155,-0.007399974058195948,-0.005325350608071312
1714669059170007600,7.780007568359375,0.021834230667352676,-0.010717281912639737,-0.010207030835561454
1714669059180080400,7.790080322265625,0.010772153905034065,0.005139847106486559,0.013668715596757829
1714669059190153500,7.800153564453125,0.005095277312397957,-0.0020201807159930464,0.008979443535674363
1714669059200226600,7.8102265625,0.0038800563037395476,-0.00536189235933125,0.01372232721382752
1714669059210300400,7.820300537109375,0.014047814574837683,-0.00017725626304745674,-0.002908553523616865
1714669059220373500,7.83037353515625,0.00537877042889595,-0.009450476847216486,-0.005255701171653345
1714669059230446600,7.840446533203125,0.012860066094994545,-0.002873436544463038,0.014970290581462905
1714669059240519400,7.85051953125,0.011811433824896812,-0.0006254384219646454,0.008054949101898818
1714669059250592500,7.860592529296875,0.01017243444621563,-0.010140358807519078,0.009255429199151694
1714669059260665300,7.870665283203125,0.014667407777905463,-0.00242971136495471,0.0008892130578402429
1714669059270739500,7.880739501953125,0.004646949023008346,-0.012073226566240191,0.01890128248799592
1714669059280812500,7.8908125,0.012413491371273993,-0.010993541570752859,0.0049079563130624585
1714669059290885400,7.900885498046875,0.016451953107118604,-0.00603840338140726,0.017587213347898794
1714669059300958700,7.910958740234375,0.008655015620589256,-0.02095218713581562,0.020360148659953847
1714669059311031600,7.921031494140625,0.013450433203577994,-0.01387523448690772,-0.006367735800473019
1714669059321104600,7.931104736328125,0.010756956335902214,-0.005794000166282057,0.0027998598515987395
1714669059331177500,7.941177490234375,0.0067155719906091685,0.0023195289887487885,0.00666292848791927
1714669059341251600,7.95125146484375,0.0007294833183288574,-0.003068447659909725,0.0010250504651106893
1714669059351324700,7.96132470703125,0.027368483918905256,-0.007335822780802846,0.002769044588226825
1714669059361397500,7.9713974609375,0.008505962538719177,-0.003044190001487732,0.012745079679507762
1714669059371470300,7.98147021484375,0.021225158858299255,-0.015769377670437096,0.0022327457544393838
1714669059381543700,7.991543701171875,0.01658639314174652,-0.010093743186816573,-0.0017001001824624835
1714669059391616500,8.001616455078125,0.0173322430729866,0.0007062485732138156,0.004398189293174073
1714669059401689600,8.011689697265625,0.004018587991595268,-0.013277341658994555,0.006507454798417166
1714669059411763500,8.021763427734374,0.005670446851849555,-0.006926730523258447,0.008697256460273637
1714669059421836500,8.03183642578125,0.000436053329706192,-0.015042670831084251,-0.001423310801386833
1714669059431909600,8.04190966796875,0.011219897672533988,-0.0226614022064954,-0.005550839060172438
1714669059441982500,8.051982421875,0.021253800430893897,-0.015134806093946098,-0.005978535553487018
1714669059452055600,8.0620556640625,0.009286299261450767,-0.01308335345685482,-0.0037265188429970292
1714669059462128600,8.072128662109375,0.013329437172412872,-0.007884469639509915,0.0003025996757671237
1714669059472201500,8.082201416015625,0.016029928302764892,-0.005286050644144415,0.004188976122438908
1714669059482275600,8.092275634765626,0.021131050834059716,0.006661869041994214,0.0012236509102862328
1714669059492348700,8.1023486328125,0.003478489765524864,0.0031631402060389516,-0.0032332189007196572
1714669059502421500,8.11242138671875,0.0012356792747974395,-0.005088701441138982,-0.002364646772108972
1714669059512494600,8.12249462890625,0.00528290883898735,-0.0053331777215003965,-0.004459664556290954
1714669059522567700,8.132567626953126,0.027584172496199606,-0.0015211451526731252,0.01669690431151539
1714669059532640800,8.142640869140624,0.000048515316843986505,-0.008374152852594852,-0.011137845412269235
1714669059542713600,8.152713623046875,0.01695113480091095,-0.007221329555660486,-0.0053120162024628366
1714669059552787500,8.162787353515625,0.007225859600305556,-0.014427899933606386,0.01589447448798455
1714669059562860800,8.17286083984375,0.004088146096467972,0.004821428807079792,0.006192461431957781
1714669059572933600,8.18293359375,0.001997311297059059,0.012246171980351208,0.02012123447069898
1714669059583006700,8.1930068359375,0.005281739795207977,-0.00666150371581316,-0.011622158330492675
1714669059593079600,8.20307958984375,0.019638181927800178,-0.01672996633090079,-0.005975174552621319
1714669059603152600,8.213152587890624,0.010807809740304946,-0.012652487758919596,0.01385434696250595
1714669059613225700,8.223225830078125,0.012311784562468528,-0.006166413675248623,-0.0011246566483750938
1714669059623299600,8.233299560546875,0.007979308316111565,0.004827274025976658,-0.00667642729030922
1714669059633372700,8.24337255859375,0.0247480722874403,-0.0038275954641401764,0.0010371427617035806
1714669059643445800,8.25344580078125,0.012782324683666229,0.0040241409495472905,0.0006653503072448075
1714669059653518600,8.2635185546875,-0.001595160236954689,-0.01213803543075919,0.01766961266803555
1714669059663591700,8.273591796875,0.005873860469460487,-0.006569660713896155,0.01191050115204416
1714669059673664500,8.28366455078125,0.028463877940177917,-0.02027421480901539,0.009199616491841152
1714669059683737900,8.29373779296875,0.011692191359400748,-0.004835238136723637,0.009766136933956294
1714669059693811700,8.303811767578125,0.004962590843439102,-0.0053351504828780885,0.0015256295315455644
1714669059703884500,8.313884521484376,0.012151041042804718,-0.007956438897177577,0.010181960326386614
1714669059713957600,8.32395751953125,0.012153379130363464,-0.012314780237153171,0.007726265136804431
1714669059724030700,8.33403076171875,0.023826281267404555,-0.009009089755266904,-0.0022403993379324673
1714669059734103600,8.344103515625,0.004811784195899963,0.0018766075268387794,0.009417451360449195
1714669059744176600,8.3541767578125,0.0006079027652740478,0.00009995324313640594,-0.004310821536974981
1714669059754249500,8.36424951171875,0.013618190985918044,-0.013098551025986671,-0.006932429611682891
1714669059764323600,8.374323486328125,0.0034340661019086837,-0.0011780308034271,0.001839225525362417
1714669059774396700,8.384396728515625,0.0013426467806100845,-0.0037471506390720603,-0.010182279986795037
1714669059784469500,8.394469482421876,0.006584639087319374,-0.0040896804664283986,0.002666716724913567
1714669059794542600,8.40454248046875,0.005092354702949524,-0.0004180062163621187,-0.013606792809069157
1714669059804615700,8.41461572265625,0.0026946459114551543,-0.005192161815613508,0.0005493044458329677
1714669059814688800,8.424688720703125,0.007478957578539848,-0.016973931154608726,0.02257486556735821
1714669059824761600,8.43476171875,0.0067465516507625575,-0.0088213851634413,0.011823361724708228
1714669059834835700,8.444835693359375,0.002257423537969589,0.0020960224311798808,0.023271624793019145
1714669059844908800,8.45490869140625,0.02709551219642162,-0.0023793694172054526,-0.004441708774492144
1714669059854981600,8.464981689453126,0.021853519889712333,-0.017122107453644276,-0.0030155484288930893
1714669059865054700,8.4750546875,0.005384031125903129,0.0053037324313074345,0.006012246026843786
1714669059875127600,8.48512744140625,0.01345978555381298,-0.016929653621464966,0.005748316127341241
1714669059885200600,8.49520068359375,-0.00509469279050827,-0.003472352285683155,-0.004482625306770205
1714669059895273700,8.505273681640626,-0.001059153664112091,-0.010583937856554985,-0.012327036930527537
1714669059905347600,8.51534765625,0.010011690926551818,-0.010575096962973474,0.00966495071495883
1714669059915420700,8.525420654296875,0.01315174251794815,-0.01129186693020165,0.008036618860764429
1714669059925493800,8.53549365234375,0.01943944448530674,-0.01894260087907314,0.0006661174922250211
1714669059935566600,8.545566650390626,0.009555763852596282,-0.004183569294959307,-0.011154403821425511
1714669059945639700,8.5556396484375,-0.002264437800645828,-0.014669161343574523,-0.0029223354537971317
1714669059955712500,8.56571240234375,0.02153729354739189,-0.002668269361183047,0.0005198682887945324
1714669059965786600,8.57578662109375,-0.0009019172757863998,-0.004264306380972266,0.005658847745601088
1714669059975859700,8.585859619140624,0.017802198672294614,-0.0006648936495184898,-0.004377329168235883
1714669059985932500,8.5959326171875,0.013600655329227447,0.0006754881087690591,-0.00996072792429477
1714669059996006000,8.606005859375,0.012410568761825561,-0.005244330394268036,-0.0031593499469105154
1714669060006078700,8.61607861328125,0.01075403372645378,-0.0012380904275923967,-0.0037873273858334867
1714669060016151600,8.626151611328124,0.012394786670804023,0.0012057225279510021,0.004166042771423235
1714669060026224600,8.636224609375,0.008954875349998474,-0.003300868176296353,0.012012701151194051
1714669060036298800,8.646298828125,0.007313537883758545,-0.019508198872581123,0.010586065881559624
1714669060046371600,8.65637158203125,-0.00017068039178848266,-0.00466053915694356,-0.0031579891068860885
1714669060056444700,8.666444580078124,0.009394435811042785,-0.005882262971624731,-0.009020378334261477
1714669060066517500,8.676517578125,0.020768062740564346,-0.0036466859392821787,-0.0022469843423459676
1714669060076590600,8.686590576171875,-0.0033142391145229337,-0.0033165041368454695,-0.011036449130717664
1714669060086663700,8.69666357421875,-0.0007663081973791122,-0.006644406450539827,-0.003317837577406317
1714669060096736800,8.70673681640625,0.0040320319950580595,-0.00812711928896606,-0.00497263731341809
1714669060106810600,8.716810546875,0.011979191607236862,-0.007446516613662243,0.0023190814641769974
1714669060116883700,8.7268837890625,0.005086509484052658,-0.011699790143966673,-0.01035426641968079
1714669060126956800,8.736956787109374,-0.0017880524605512619,-0.009423881101235747,0.006800145001523196
1714669060137029600,8.747029541015625,0.010641805523633956,-0.02620060918331146,0.0013103245467413216
1714669060147102700,8.757102783203125,-0.005671615895628929,-0.012248071676492691,-0.006329668812407181
1714669060157175600,8.767175537109376,0.011097732597589493,-0.003262801188230514,0.010945336781162768
1714669060167248600,8.77724853515625,0.019918167912960052,-0.0022667758882045745,0.011007853223895653
1714669060177322800,8.78732275390625,0.0025637130081653595,-0.0025958617120981214,0.005744772463385016
1714669060187395600,8.7973955078125,0.0166220489770174,-0.0056446548234671354,-0.0017487068308517336
1714669060197468700,8.80746875,0.014224340185523033,-0.0036342648491263386,-0.007025149396434426
1714669060207541800,8.817541748046875,0.017072130832076073,-0.0017586071703583,-0.00035815665475092827
1714669060217614600,8.827614501953125,0.005104629662632942,-0.0079363459572196,0.007276283746445551
1714669060227687700,8.837687744140625,0.021862287718057632,-0.018222250715270637,-0.004423643394839018
1714669060237760500,8.847760498046876,0.010492752441763877,-0.005996902327239513,0.01786326294345781
1714669060247834600,8.857834716796875,0.004350011903047561,-0.0118876408662647,0.016325842509418726
1714669060257907700,8.86790771484375,0.0028548049092292785,-0.012664105131477118,-0.013384811488306149
1714669060267980500,8.87798046875,0.0013584288716316222,0.00455050291121006,-0.001702931460365653
1714669060278054000,8.888053955078124,0.0037526305317878723,-0.0010063274983316659,-0.007797421543719246
1714669060288126700,8.898126708984375,0.001219312661886215,-0.018937632443010805,-0.009077460550051182
1714669060298199600,8.908199462890625,0.003159340813755989,-0.026820348516851663,0.020431350732641292
1714669060308272600,8.918272705078126,0.006451368096470832,-0.006333221609517932,0.01120216108644381
1714669060318346800,8.9283466796875,0.015438976672291755,-0.012899521322548388,0.004850791898882016
1714669060328419600,8.938419677734375,0.004375146344304084,-0.006582008738815784,0.00938252617754042
1714669060338492700,8.94849267578125,0.014250643670558928,0.004327946201711893,0.008610445826500654
1714669060348565500,8.9585654296875,0.015593290451169013,-0.006705854314193129,-0.0004468030525837093
1714669060358638800,8.968638916015625,-0.00206219322681427,0.005540609927102923,0.007585148766217753
1714669060368711700,8.978711669921875,0.009185176974534987,-0.0004717822302132845,0.005591098005324602
1714669060378784800,8.98878466796875,0.011570026284456253,-0.0048616877522319555,-0.01207275164220482
1714669060388858600,8.998858642578124,0.009625906479358673,-0.01117562013939023,-0.021881357744708656
1714669060398931700,9.008931640625,0.009780804780125617,-0.004080328116193414,0.0019414985897485166
1714669060409004800,9.0190048828125,0.02430091304183006,-0.006836494956538081,0.003914844489330426
1714669060419077600,9.02907763671875,0.014417232409119605,-0.0029855916820466515,0.01610861956216395
1714669060429150500,9.039150390625,0.014567454534769058,-0.006880553293973207,0.00010780775602906942
1714669060439223800,9.049223876953125,0.014575053319334983,-0.0035456367176026106,0.011583095828583464
1714669060449296600,9.059296630859375,0.007696399721503257,-0.010667670617252588,-0.0019713366055861114
1714669060459370500,9.06937060546875,0.012038228318095206,-0.007398951144888997,0.010536573317181318
1714669060469443600,9.079443603515625,0.0011170213311910628,-0.008469356855377554,0.0024888668068218977
1714669060479516700,9.0895166015625,0.0003577273964881897,-0.012497662523388861,-0.019076118465093894
1714669060489589800,9.09958984375,0.006941781961917877,-0.008474909813329577,-0.01546253107781522
1714669060499663400,9.109663330078124,-0.00009060089290142059,-0.005824176108837127,-0.005212802744843066
1714669060509736200,9.119736083984375,0.01996668322980404,0.0017447978407144546,0.011305347466282546
1714669060519809500,9.1298095703125,0.012784078249335288,-0.012183408942446112,0.009284974954044446
1714669060529883400,9.13988330078125,0.023394904112815855,0.0020329671323299405,0.00017566709415987132
1714669060539956200,9.149956298828124,0.006337386327981948,-0.005470832626521587,-0.0007667465887963771
1714669060550029600,9.160029541015625,0.011858195576071739,-0.009013619799911976,-0.0014167531964369116
1714669060560102400,9.170102294921875,0.005114566534757614,-0.0008053250335156917,0.005005763264885172
1714669060570175500,9.180175537109376,0.0030155484288930893,-0.019165888240933418,-0.00554650081177242
1714669060580248300,9.190248291015624,0.0065986676126718515,-0.010695289276540279,0.014411725116940215
1714669060590321400,9.2003212890625,0.014678513693809509,-0.013999664584174752,-0.0062114949259907005
1714669060600395500,9.2103955078125,0.0022620997130870816,-0.009264014364406466,0.002706856939056888
1714669060610468400,9.22046826171875,0.01454465818107128,-0.005377528319880366,-0.007008892381377518
1714669060620541400,9.23054150390625,-0.0014653963774442671,-0.0015175649560987949,-0.007983564366120844
1714669060630614500,9.240614501953125,0.010492167919874191,-0.010928221249580383,0.006011469708709046
1714669060640687400,9.250687255859376,0.016174889731407165,-0.013279241355136036,0.0018082823978271335
1714669060650760400,9.260760498046874,0.006594575959444046,-0.012339841613173485,0.0013232388272415845
1714669060660833300,9.270833251953125,0.013328268128633499,-0.010559387937188148,0.004498644859809428
1714669060670907400,9.280907470703125,0.0218505972802639,-0.006725801123678684,-0.002210205129068345
1714669060680980500,9.29098046875,0.014364625439047813,-0.006540873010829091,-0.019066309457132592
1714669060691053300,9.30105322265625,0.019005729243159294,-0.002704655848816037,-0.005204674237314611
1714669060701126400,9.31112646484375,0.007044073292613029,-0.005975275017321109,-0.003608491087052971
1714669060711199500,9.321199462890625,0.014513093999028205,-0.008045286224409937,0.004838032882008701
1714669060721272600,9.3312724609375,0.005232055434584618,-0.012345248440653085,-0.012856348901102318
1714669060731345400,9.341345458984375,0.004485036459565162,0.0026155893258750437,-0.01099992564576678
1714669060741419300,9.351419189453125,0.021693945413827895,0.0038118133731186387,0.008541746238153427
1714669060751492600,9.36149267578125,0.01212824468910694,-0.005771642204001545,0.009653707801736891
1714669060761565400,9.3715654296875,0.0021048633247613907,-0.006405556193366646,0.001990525363245979
1714669060771638300,9.38163818359375,-0.003593640577793121,-0.004602452294155955,0.0062742670970503235
1714669060781711400,9.39171142578125,0.014663900646567344,-0.0013508300870656966,-0.002942245730664581
1714669060791784200,9.4017841796875,0.012868249401450156,-0.004951557992771268,0.0011816292663104832
1714669060801857500,9.411857421875,0.023345804274082182,0.005184051574394106,-0.0027276531319133934
1714669060811931400,9.421931396484375,0.01032967083454132,-0.014751067473366856,0.0035169129466172304
1714669060822004200,9.432004150390625,0.016306991678476334,0.012125102883949876,0.006137169314455241
1714669060832077600,9.44207763671875,0.0003057049483060837,0.008701265915110707,0.0026606249108444896
1714669060842150400,9.452150390625,-0.008213117071986197,-0.003262801188230514,-0.009219097510445862
1714669060852223500,9.462223388671875,0.021555413725972174,0.01017353042475879,-0.0020511055772192777
1714669060862296300,9.47229638671875,-0.006415712261199951,0.005091624050587416,0.0032012437267228957
1714669060872369400,9.482369384765626,0.004203296908736229,0.0018735387869179248,0.00623924144944176
1714669060882443500,9.492443603515625,0.0196066177457571,-0.009362725498527288,-0.0034228871207684277
1714669060892516400,9.502516357421875,0.008664952492713927,-0.004501476137712597,-0.003940152460522949
1714669060902589400,9.51258935546875,0.007173837152123451,-0.004131108455359935,-0.003726464044069871
1714669060912662500,9.52266259765625,0.005973229190707206,-0.0026235534366220235,-0.005574521329859272
1714669060922735400,9.5327353515625,-0.0015010522127151488,-0.00842186445184052,0.006441897015227005
1714669060932808400,9.542808349609375,0.0012000234395265579,-0.011808145889267326,0.005857521256012842
1714669060942881300,9.55288134765625,0.02574702019691467,0.0005002046070992946,0.012864203413994982
1714669060952955400,9.562955322265625,0.004793664017319679,0.00202492995634675,0.011649155935272574
1714669060963028500,9.573028564453125,0.01677110205888748,-0.0015172726951539516,0.001672079664375633
1714669060973101300,9.583101318359375,-0.0008662614405155182,0.009894275091961025,-0.0007525171340443193
1714669060983174400,9.59317431640625,0.020073650735616684,-0.002551511113718152,0.005522699811076745
1714669060993247500,9.60324755859375,0.009753332251310348,0.002160027578100562,-0.011471981870615855
1714669061003320600,9.613320556640625,0.004963175365328788,-0.005010010181739926,-0.00032135004200972613
1714669061013393400,9.623393310546875,0.003157587248086929,0.0011147563088685273,-0.004893927787709981
1714669061023467300,9.63346728515625,0.023655016353726386,-0.007995309602841734,-0.0026338465017732232
1714669061033540600,9.64354052734375,0.0027086744368076325,-0.0004312310241162777,0.01737118684388697
1714669061043613400,9.653613525390625,0.014682605347037315,0.0010242284812033175,-0.0014995726416818797
1714669061053686300,9.663686279296876,0.007069207733869552,-0.002206570133566856,-0.02159268612959422
1714669061063759400,9.67375927734375,0.003924479967355728,0.0018174246855080128,-0.009184491987945511
1714669061073832400,9.68383251953125,0.006308160233497619,-0.009001198709756136,-0.01042513056565076
1714669061083905500,9.693905517578125,0.005265373182296753,0.0003679565295577049,-0.013263952454458921
1714669061093979400,9.7039794921875,0.028623452416062352,-0.01805916910804808,-0.019138315247418356
1714669061104052200,9.71405224609375,0.004991232416033745,-0.0026318828735500573,-0.007889036216773093
1714669061114125600,9.72412548828125,-0.00009118541479110717,-0.010185366993024945,-0.005355508284317329
1714669061124198400,9.734198486328125,0.008443418696522712,-0.00713204383701086,-0.0065520702582784
1714669061134271500,9.744271484375,0.005751110872626304,-0.012997501804307102,-0.017290988613991067
1714669061144344300,9.75434423828125,0.006640168666839599,-0.001967646811157465,-0.014310219237534328
1714669061154417400,9.76441748046875,-0.0006844751328229904,0.007803951749205589,0.00014858729098923503
1714669061164491500,9.774491455078126,-0.008014964151382446,-0.0022421529036015272,-0.002863645802810788
1714669061174564400,9.784564453125,-0.0027700492352247235,-0.0013005612045526504,-0.023844163983967152
1714669061184637200,9.79463720703125,-0.0017190788775682448,0.008830883644148706,-0.012168969425139948
1714669061194710500,9.80471044921875,0.0002256254494190216,0.007495031930506229,-0.0015021025254856794
1714669061204783400,9.814783447265626,0.006961655706167221,-0.00842361801750958,-0.004826086715888232
1714669061214856400,9.8248564453125,0.015940496453642844,-0.0018519845422357319,-0.003544641203759238
1714669061224929300,9.83492919921875,0.004130816194415092,-0.02249612864218652,-0.012017477791011333
1714669061235003400,9.84500341796875,0.012647884649038314,-0.0036360914800316092,-0.003057451341859996
1714669061245076500,9.855076416015624,0.005755787047743797,-0.0035257629733532665,0.004693939103046432
1714669061255149300,9.8651494140625,0.02175648925602436,-0.008481558749824761,-0.004579409345285967
1714669061265222400,9.875222412109375,0.003041267392039299,-0.001900280663371086,-0.01603096034922637
1714669061275295500,9.88529541015625,0.006623802053928375,-0.008231821772456169,-0.0021787048791069535
1714669061285368300,9.895368408203124,0.01125555350780487,-0.011746698025614023,0.0014590214355848729
1714669061295441400,9.90544140625,-0.013594225588440895,-0.017151479678601027,0.015700541084771976
1714669061305515300,9.915515380859375,0.009439443996548651,-0.006860825680196285,0.0013194759675767271
1714669061315588400,9.92558837890625,0.003310147461295128,-0.009039704089239238,-0.002906818224256858
1714669061325661400,9.935661376953124,0.009743979901075362,-0.006195639769732952,-0.0038800015048123895
1714669061335734300,9.945734375,0.031136896541714667,-0.007628229856118559,-0.0028442287162877616
1714669061345807400,9.955807373046875,0.01572597692012787,-0.0025765724897384643,-0.0029559180629905313
1714669061355880400,9.96588037109375,-0.0020768062740564347,-0.021077128689736126,0.013964164012530818
1714669061365953500,9.97595361328125,0.0015104045629501341,-0.012779109813272953,-0.0000057812868151813745
1714669061376027400,9.98602734375,-0.008973580050468444,-0.007562982600182295,-0.00651480698781088
1714669061386100200,9.996100341796875,0.007626257094740867,-0.013583338868245481,-0.015611602425994351
1714669061396173600,10.006173583984374,0.007017185285687446,-0.004183715425431728,-0.009265375204430892
1714669061406246400,10.016246337890625,0.011956395253539085,0.012407353891432285,-0.007186413505906239
1714669061416319500,10.026319580078125,0.011813187390565872,0.005739274304360151,0.0028182905574329195
1714669061426392300,10.036392333984375,0.025434885507822035,0.0005979658931493759,-0.01104958260692656
1714669061436465400,10.04646533203125,0.005537760382890701,0.005016220726817846,-0.0009081734866369515
1714669061446539500,10.05653955078125,0.0022509937971830368,-0.026153847432136536,0.0029525570621248332
1714669061456612400,10.0666123046875,0.011828384959697723,0.0024190438404679297,-0.007355267266789451
1714669061466685200,10.076685302734376,0.007478373056650161,-0.010003434554859995,-0.0011670984174590557
1714669061476758500,10.086758544921874,0.012709843969345092,0.005638955735042691,0.009819931214116513
1714669061486831400,10.096831298828125,0.013016717961430549,-0.012863280965387821,-0.011727491001645102
1714669061496905200,10.1069052734375,0.003143558722734451,-0.007663885691389441,-0.00917505743931979
1714669061506978300,10.116978271484374,0.0012000234395265579,0.0002418459318578243,-0.006372019249945879
1714669061517051100,10.127051025390625,-0.000754033237695694,-0.017925459725782276,0.0012358345384243874
1714669061527125200,10.137125244140625,0.01016366661787033,-0.012319602542743086,-0.014052189355855806
1714669061537198300,10.1471982421875,0.019148937106132507,-0.0017749737832695245,-0.006351670581661165
1714669061547271200,10.157271240234374,0.0059796589314937585,-0.010292626759782432,0.001857446168642491
1714669061557344300,10.16734423828125,0.020178280153870583,-0.0056014732688665385,0.00590928797586821
1714669061567417300,10.177417236328125,0.01210427929162979,-0.0085338003937155,-0.005185101887164637
1714669061577490400,10.187490478515626,0.02317863101363182,-0.006923296457156539,-0.018059735363628714
1714669061587563300,10.197563232421874,0.013147650864720344,-0.0025058453410863875,-0.003034956382261589
1714669061597637000,10.20763720703125,0.021669980016350746,0.004009162576124072,-0.0077547149131540205
1714669061607710500,10.21771044921875,0.003559738308191299,-0.002227612921595573,-0.0072910246578510845
1714669061617783300,10.227783203125,0.009984218397736548,-0.009431114559620618,-0.019113354336097836
1714669061627856100,10.237856201171875,0.0021989713490009307,-0.0014269640631973742,0.012282266207039356
1714669061637929200,10.24792919921875,0.01818506051003933,0.00996748645864427,-0.00120219713030383
1714669061648002300,10.258002197265625,0.008750877210497856,-0.009716872698441147,-0.01900475199562497
1714669061658075400,10.268075439453124,0.005917115089297294,-0.01837977936454117,-0.010275803489144891
1714669061668149200,10.278149169921875,0.011595745247602462,-0.012756240394338965,-0.005243426211969927
1714669061678222000,10.28822216796875,0.022645547050237653,-0.007374912682175636,0.0037746323010418564
1714669061688295400,10.29829541015625,0.00857201351225376,-0.015825053380429745,-0.006789897602144628
1714669061698368300,10.3083681640625,-0.005180032986402511,-0.007185454524680971,-0.019847733025252817
1714669061708441300,10.31844140625,0.013524667483568191,0.005795607601478695,0.008521397569868713
1714669061718514200,10.32851416015625,0.007384265032410621,0.006149608670920133,-0.008210842916509135
1714669061728587300,10.338587158203126,0.014728198054432868,-0.0068720777265727515,-0.00939913025246933
1714669061738661400,10.348661376953125,0.01428805307149887,-0.0016329349640756845,-0.013527626625634729
1714669061748734200,10.358734130859375,-0.0014198036700487136,-0.003662248834595084,0.01201768785356544
1714669061758807300,10.368807373046875,0.016686346384882925,-0.00110167763158679,0.002718529110541567
1714669061768880400,10.37888037109375,0.021175474497675893,-0.00006795066967606544,-0.02072019587769173
1714669061778953200,10.388953125,0.0012765958070755003,-0.0031117022797465324,0.005992792407702654
1714669061789026300,10.3990263671875,0.010556465327739715,-0.0038943770900368687,-0.010221351621858775
1714669061799099100,10.40909912109375,0.017733809611201284,-0.013991189016774297,-0.007781484189070761
1714669061809173200,10.41917333984375,-0.0014075287103652954,-0.010121434911340474,-0.002004352959198877
1714669061819246300,10.429246337890625,0.0009925181686878204,-0.01259418170042336,-0.00934008440845646
1714669061829319200,10.439319091796875,0.02552957805395126,-0.008664660231769084,-0.011479471057327464
1714669061839392300,10.449392333984376,-0.0025847557961940766,-0.0038169279396533962,-0.012315702685760333
1714669061849465300,10.45946533203125,0.014477438163757324,-0.008503186059743165,-0.005269099509343504
1714669061859538400,10.469538330078125,0.0005582184046506881,-0.002011412887647748,-0.009800477594975382
1714669061869611300,10.479611328125,0.010439560949802399,-0.007450608266890048,0.0043580034132581205
1714669061879685000,10.48968505859375,0.01298749186694622,0.002083236014842987,-0.004857166840741411
1714669061889758500,10.499758544921875,0.00656125821173191,0.0013743570931255816,-0.0012766962717752903
1714669061899831300,10.509831298828125,0.00985913071334362,0.004761515313386917,-0.01611687593385577
1714669061909904100,10.519904052734375,0.019734628039598464,-0.005249956417456269,-0.016387947960197925
1714669061919977200,10.529977294921874,0.0037292496562004087,-0.0029364918433129788,0.0011319905714597552
1714669061930050300,10.54005029296875,0.0002846621602773666,-0.006937471112981438,0.006347843789914622
1714669061940123400,10.550123291015625,0.029148353073000906,-0.009579290858656168,-0.018119904585648328
1714669061950197200,10.560197265625,-0.0016805004328489302,-0.015231544466689229,-0.01847169543169439
1714669061960270000,10.57027001953125,0.004305588239431381,-0.0022131460048258303,-0.006598512349044904
1714669061970343400,10.580343505859375,0.014321955341100692,-0.009997954662144183,-0.011084763518162071
1714669061980416300,10.590416259765625,0.0004068272352218628,-0.005217588517814875,-0.013732583746360614
1714669061990489300,10.6004892578125,0.011629647517204285,-0.007611351786553859,-0.0011585680511314422
1714669062000562200,10.610562255859374,0.004746902266144752,-0.009546922959014773,-0.0019478735316079108
1714669062010635300,10.62063525390625,0.009696633628010749,0.006932721872627735,-0.010781350991642102
1714669062020709400,10.63070947265625,0.006838906109333038,0.0002456453241407871,-0.012796727668354288
1714669062030782200,10.6407822265625,0.01057633907198906,-0.015114128632098435,0.006075785382883623
1714669062040855300,10.650855224609375,0.00040273558199405667,-0.005864581184461712,0.0036530700142960995
1714669062050928400,10.660928466796875,0.009084639209508895,-0.012477642648667096,-0.003334295521862805
1714669062061001200,10.671001220703126,0.012840776872634886,-0.014598434194922447,-0.014709456821344792
1714669062071074300,10.68107421875,0.01613806485235691,-0.018123320385441184,0.0035757121954578903
1714669062081147100,10.691147216796875,0.008489595925807952,-0.004902312023565173,-0.00007187792612239719
1714669062091220500,10.701220458984375,-0.00826397047638893,-0.0007682078935205936,-0.008794652420142665
1714669062101294300,10.71129443359375,0.004901800566911697,0.0005814531497657299,-0.0022167992666363716
1714669062111367200,10.7213671875,-0.001087210714817047,0.0009120733436197042,-0.00006875438727438449
1714669062121440300,10.731440185546875,0.017757775008678436,-0.0187357531953603,-0.005730817003268748
1714669062131513300,10.741513427734375,0.006821954974532127,-0.015146350401267408,0.0033275643869768827
1714669062141586200,10.751586181640626,0.004130816194415092,-0.017842092291265724,-0.010567854371434078
1714669062151659300,10.7616591796875,0.006375964772701263,-0.0010710632976144551,-0.006837490470381453
1714669062161732000,10.771732177734375,0.009964929175376891,-0.003133183459192514,-0.016860771370027214
1714669062171806200,10.78180615234375,0.008910451686382293,0.010574804702028632,-0.02044450247515924
1714669062181879300,10.79187939453125,0.006668225717544555,0.0018532997164875267,-0.003332569355657324
1714669062191952100,10.8019521484375,0.0017389526218175887,-0.014311799273267388,-0.012111183956451714
1714669062202025200,10.812025146484375,0.005928221005201339,-0.017146292046830058,0.009575664996309205
1714669062212098300,10.822098388671876,0.019400281518697736,-0.006295154621452093,-0.008153696768637746
1714669062222171400,10.83217138671875,0.019842764589190483,-0.01325914841517806,-0.0022385909733362496
1714669062232244200,10.842244140625,0.009823474878072738,-0.015132102680206297,-0.00133171439464204
1714669062242318300,10.852318359375,0.011323358047008514,-0.009937164385616778,-0.008786807040404528
1714669062252391400,10.862391357421876,0.009520108017325401,0.0004623568147420883,0.00735471927751787
1714669062262464300,10.87246435546875,0.011761749464273451,-0.0021974369790405033,-0.0034526703376788646
1714669062272537300,10.882537353515625,0.0171492877215147,0.004359145057573914,-0.014190118255512788
1714669062282610200,10.892610107421875,-0.00006079027652740478,-0.010296499217301606,0.002307792885182425
1714669062292683300,10.902683349609376,-0.004101590099930763,-0.003412146531045437,0.01502474244874902
1714669062302756400,10.91275634765625,0.020744681864976883,-0.016958806650713084,-0.012938519892375915
1714669062312830200,10.922830322265625,0.0033802900880575176,0.004672010399028659,-0.002631855474086478
1714669062322903300,10.9329033203125,-0.013239420801401138,-0.006859875832125544,-0.0040528099216055125
1714669062332976400,10.942976318359374,0.0112847796022892,-0.011133899889513849,0.013640457616653293
1714669062343049200,10.95304931640625,0.010084171640872955,-0.005840469656512141,0.004578907021787018
1714669062353122300,10.963122314453125,0.0025958617120981214,0.0011420827072113752,-0.0034062282469123598
1714669062363195100,10.973195068359376,0.00842997469305992,-0.003319061420112848,0.0019903883659280835
1714669062373268500,10.9832685546875,0.012460837644338607,0.008457739482820033,-0.012774415371846407
1714669062383342300,10.99334228515625,0.003189151430130005,-0.017074980376288292,-0.011824275040160865
1714669062393415200,11.003415283203125,0.015012275692820548,-0.0015169804342091084,-0.01712018949119374
1714669062403488500,11.013488525390626,0.007523381242156029,-0.014312968317046761,0.0038515517284628
1714669062413561300,11.023561279296874,0.02309504438340664,-0.006520853136107325,-0.0007106142210774123
1714669062423634200,11.03363427734375,0.0024497312396764754,-0.012843334155902266,-0.010739703807001932
1714669062433707300,11.043707275390625,-0.00713116705417633,-0.0042673751208931205,-0.012904590223310515
1714669062443780000,11.053780029296876,0.0045317982107400895,-0.0005836451068520546,-0.008113876214902848
1714669062453854200,11.063854248046875,0.001985036337375641,-0.0069837944727391,-0.01513434943621978
1714669062463927300,11.07392724609375,0.02607961315214634,-0.0055555883005261415,-0.00369331069313921
1714669062474000100,11.084000244140626,-0.011471242085099219,-0.010329232443124056,-0.016123296541487798
1714669062484073200,11.0940732421875,0.01724164218008518,-0.014574541862681508,-0.0027439284132793544
1714669062494147300,11.104147216796875,0.010052022936940193,-0.0076252341814339155,0.0032458774528931825
1714669062504220400,11.114220458984375,0.012753683111071586,0.0031848405811935663,-0.007440041207103058
1714669062514293500,11.12429345703125,-0.00670680416226387,-0.006723609166592359,0.0012477441719267518
1714669062524366300,11.134366455078125,0.007810381489992141,-0.002833908251672983,-0.006665312241250648
1714669062534440400,11.1444404296875,0.0006394669473171234,-0.012269698986411094,-0.024497412861464545
1714669062544513500,11.154513427734376,0.010656418570876122,-0.010337854140996932,-0.010913270275620742
1714669062554586400,11.16458642578125,0.0033270985960960385,0.002363879587128758,-0.012402147993352264
1714669062564659500,11.174659423828125,-0.002065115836262703,-0.0023551848240196704,0.0019883516724687068
1714669062574732300,11.184732177734375,0.002714519655704498,-0.013443418940901756,-0.014937612154567613
1714669062584805400,11.194805419921876,0.014533552265167235,0.009941840560734272,-0.004393832778465003
1714669062594878500,11.20487841796875,0.009441197562217712,-0.0030253391705453393,-0.005614214019430801
1714669062604952300,11.214952392578125,0.000015197569131851195,-0.012906097193807363,-0.019025328992772848
1714669062615025400,11.225025390625,0.0028460370808839797,-0.0055438247974961994,-0.023835313957231118
1714669062625098500,11.235098388671876,0.010464110869169235,0.010039017324894666,-0.016369298058655113
1714669062635171300,11.24517138671875,0.016294716718792915,-0.0038015842400491236,-0.013789675095304845
1714669062645244400,11.255244384765625,0.010464110869169235,-0.00699716541096568,-0.025353554766764864
1714669062655317200,11.265317138671875,0.004774959316849708,-0.013557839100807904,-0.003039048035489395
1714669062665390600,11.275390625,0.0008820435315370559,0.0026196809791028497,-0.0015859540171921252
1714669062675464400,11.28546435546875,0.01119885488450527,-0.004594415118172764,-0.018736593445576728
1714669062685537300,11.295537353515625,0.011646598652005196,-0.015492971881851553,-0.0058290349470451475
1714669062695610600,11.305610595703126,0.007316460493206977,-0.005154387088492513,-0.014452614249754697
1714669062705683500,11.315683349609374,0.004921674311161041,-0.0036431788079440593,-0.01753572062267922
1714669062715756500,11.325756591796875,0.020925883650779725,-0.011938859596848487,-0.007417089589778334
1714669062725829400,11.335829345703125,0.0028220716834068296,-0.011986571196094154,-0.015719748108740893
1714669062735902200,11.345902099609376,0.01120586914718151,-0.011278276796266437,-0.010715135621326043
1714669062745976600,11.3559765625,0.013161679390072822,-0.007813304099440574,-0.0051248778662178664
1714669062756049400,11.36604931640625,0.00897767170369625,0.010677826685085892,-0.008770285163866355
1714669062766122200,11.376122314453125,0.00611819061934948,-0.0097482907500118,-0.027095439131185412
1714669062776195300,11.3861953125,0.0034328970581293103,-0.0014782558590173721,-0.02266248905188404
1714669062786268400,11.396268310546875,0.004340659552812576,0.0003052665568888187,0.0015372286377940325
1714669062796341500,11.406341552734375,0.019461656317114828,-0.01074080891869962,0.002115229455148801
1714669062806414300,11.416414306640625,0.011225158369541167,-0.0045192309901118275,0.005594075413700193
1714669062816487400,11.4264873046875,0.01227028350830078,-0.01000285003297031,0.0027345577967353165
1714669062826561500,11.4365615234375,0.012568974193930625,-0.006555412992835044,-0.015993706211913376
1714669062836634400,11.44663427734375,-0.016159107640385625,-0.007789923223853111,-0.009281741817342117
1714669062846707500,11.45670751953125,0.013622867161035538,-0.011708484907075762,-0.023777957746805623
1714669062856780300,11.4667802734375,0.0006067337214946747,-0.021162249689921735,-0.02048394856955856
1714669062866853400,11.476853271484375,0.013185644787549971,-0.012465659949928522,-0.025006367030600083
1714669062876926500,11.486926513671875,-0.004914075526595115,0.00045154315978288646,-0.002131605201214552
1714669062886999300,11.496999267578126,-0.0017605799317359924,-0.012117284903675318,0.006988388449465856
1714669062897073400,11.507073486328125,0.0051209962755441665,-0.004162672637403011,-0.0006339139893651009
1714669062907146500,11.517146484375,-0.0005611410140991211,-0.006737491561472415,-0.013832555255806072
1714669062917219300,11.52721923828125,0.010369418323040008,-0.0017472820587456225,-0.02312336629559286
1714669062927292400,11.53729248046875,0.006935936743021011,-0.01051795994825661,-0.01135454776971601
1714669062937365200,11.547365234375,0.014720014747977257,0.003524374733865261,-0.025353801361937073
1714669062947438600,11.5574384765625,0.016062077006697654,-0.0064339055050164455,-0.001219203064031899
1714669062957511400,11.567511474609375,0.01037935519516468,-0.01078596323467791,-0.0011547686588484793
1714669062967585300,11.577585205078124,0.01171907936632633,-0.002454042088612914,-0.012005805619526654
1714669062977658600,11.58765869140625,0.006635492491722106,-0.0028035131134092808,-0.0061389411464333535
1714669062987731500,11.5977314453125,0.014278700721263885,-0.008347410976141691,0.008808799676503986
1714669062997804300,11.60780419921875,0.005754618003964424,-0.00468545440249145,-0.003072301851119846
1714669063007877400,11.61787744140625,0.0003787701845169067,-0.01037935519516468,-0.021117835159460082
1714669063017950200,11.6279501953125,0.010258359163999557,-0.007734978166222572,-0.007837726154644042
1714669063028023600,11.6380234375,0.007107786178588866,-0.018561857933178542,-0.01885247491020709
1714669063038097400,11.648097412109376,0.02491173841655254,-0.005964315231889486,-0.005414700258802622
1714669063048170200,11.658170166015625,0.017436287969350813,-0.004708908343315124,-0.00922816673289053
1714669063058243600,11.66824365234375,0.006501636978983879,0.0020231763906776905,-0.010539459394011646
1714669063068316400,11.67831640625,-0.005176525855064392,0.003147796506434679,-0.010573270332068204
1714669063078389500,11.688389404296874,0.002006079125404358,-0.007179390110075473,-0.015230055762501433
1714669063088462300,11.69846240234375,0.006649521017074584,-0.004266790599003434,-0.0007207246231380849
1714669063098535400,11.708535400390625,0.008742693904042243,-0.0007963380094617604,-0.004717292579170316
1714669063108608500,11.7186083984375,0.011427402943372725,-0.005763385832309722,-0.007648167532449588
1714669063118682400,11.728682373046874,0.012765958070755003,-0.007315218384191393,-0.010871741821989417
1714669063128755500,11.73875537109375,0.010073650246858596,0.0017771657403558491,-0.009956051749177276
1714669063138828500,11.74882861328125,0.004689619120955467,-0.00917282894961536,-0.005105789573257789
1714669063148901400,11.7589013671875,0.019666238978505134,-0.007700710570439696,-0.018621223437599838
1714669063158974500,11.768974365234374,0.013087445110082625,-0.0077684420444071286,-0.01652048829868436
1714669063169047300,11.77904736328125,0.019837503892183302,-0.0033598318219184875,-0.01931218311013654
1714669063179120400,11.789120361328125,0.014614216285943985,-0.017167334834858775,-0.0059204121580813075
1714669063189194500,11.799194580078124,0.004293897801637649,-0.011243424678593874,-0.01757860991633497
1714669063199267300,11.809267333984375,0.0017518121033906935,-0.01528232480585575,-0.022229787589889017
1714669063209340400,11.81934033203125,0.02181961762011051,-0.013684241959452628,-0.01121248155105859
1714669063219413500,11.82941357421875,-0.007053425642848015,-0.012268968334048986,-0.019201279214723036
1714669063229486600,11.839486572265624,-0.005113982012867928,-0.01010061131902039,-0.02494317473443225
1714669063239559400,11.849559326171875,0.0011678747355937957,-0.01005092695839703,-0.006467141054337844
1714669063249632300,11.85963232421875,0.014016250392794609,-0.005158697937428951,-0.008285981378797441
1714669063259706600,11.86970654296875,0.003095627927780151,-0.010597601055726408,-0.010320437215315177
1714669063269779500,11.879779541015624,0.007279051092267036,-0.004261676032468676,-0.004109453745977953
1714669063279852300,11.889852294921875,0.022540917631983754,-0.01637691510953009,-0.02406479359786026
1714669063289925400,11.89992529296875,0.028379706788063046,-0.014916925559565425,-0.00987951591424644
1714669063299998500,11.90999853515625,0.008027239111065863,-0.0026294717207551,-0.007652387049840763
1714669063310071600,11.920071533203124,0.004142506632208824,-0.007643792751431465,-0.020683699792204423
1714669063320144400,11.930144287109375,0.0032546178817749022,-0.00015073358230292797,-0.02210124757308513
1714669063330218200,11.94021826171875,0.009990063616633415,-0.0058541328556835645,-0.01558445869074203
1714669063340291600,11.95029150390625,0.02496317634284496,0.0025619594424962995,-0.017367962840339167
1714669063350364400,11.960364501953125,0.006403437301516533,0.0032219577211886645,-0.021709855369012803
1714669063360437500,11.9704375,0.005350713378190994,-0.010489902897551655,0.003378837916487828
