time,seconds_elapsed,z,y,x
1714412571589344300,0.00834423828125,-0.965362548828125,-0.0153350830078125,-0.15716552734375
1714412571599418400,0.01841845703125,-0.9682464599609375,-0.015106201171875,-0.1674346923828125
1714412571609491500,0.028491455078125,-0.981048583984375,-0.0131072998046875,-0.170196533203125
1714412571619564300,0.038564208984375,-0.9879302978515625,-0.01312255859375,-0.1688690185546875
1714412571629638100,0.04863818359375,-0.989715576171875,-0.00689697265625,-0.175201416015625
1714412571639711500,0.05871142578125,-0.988250732421875,-0.008941650390625,-0.167236328125
1714412571649784300,0.068784423828125,-0.986785888671875,-0.011749267578125,-0.1676788330078125
1714412571659857200,0.078857177734375,-0.9885711669921875,-0.011627197265625,-0.17230224609375
1714412571669930800,0.0889306640625,-0.999481201171875,-0.0104827880859375,-0.1722564697265625
1714412571680003800,0.09900390625,-1.009674072265625,-0.01275634765625,-0.171905517578125
1714412571690077000,0.109076904296875,-1.0113067626953125,-0.0121002197265625,-0.1692047119140625
1714412571700150800,0.11915087890625,-1.007659912109375,-0.011749267578125,-0.16705322265625
1714412571710224000,0.129223876953125,-1.0006561279296875,-0.015533447265625,-0.1674652099609375
1714412571720297000,0.139296875,-0.994293212890625,-0.0183868408203125,-0.1679229736328125
1714412571730369800,0.149369873046875,-0.9906768798828125,-0.0187225341796875,-0.1639556884765625
1714412571740443600,0.159443603515625,-0.9930419921875,-0.0179595947265625,-0.1625823974609375
1714412571750517000,0.16951708984375,-0.9929351806640625,-0.0186767578125,-0.16339111328125
1714412571760589800,0.17958984375,-0.9930419921875,-0.0191802978515625,-0.1610870361328125
1714412571770663700,0.18966357421875,-0.990875244140625,-0.0200958251953125,-0.1595001220703125
1714412571780737000,0.199737060546875,-0.9868316650390625,-0.02093505859375,-0.1584625244140625
1714412571790809900,0.209809814453125,-0.9824981689453125,-0.021575927734375,-0.155517578125
1714412571800883700,0.2198837890625,-0.9799652099609375,-0.020416259765625,-0.150665283203125
1714412571810956800,0.229956787109375,-0.9797210693359375,-0.019439697265625,-0.1446990966796875
1714412571821030000,0.24002978515625,-0.9827117919921875,-0.016204833984375,-0.1430511474609375
1714412571831103000,0.25010302734375,-0.9847869873046875,-0.0137786865234375,-0.1440582275390625
1714412571841176800,0.2601767578125,-0.98553466796875,-0.012542724609375,-0.1502685546875
1714412571851249700,0.270249755859375,-0.9834747314453125,-0.014404296875,-0.1528472900390625
1714412571861322800,0.28032275390625,-0.9801788330078125,-0.0138092041015625,-0.1555023193359375
1714412571871396900,0.29039697265625,-0.9786529541015625,-0.0117950439453125,-0.157379150390625
1714412571881469700,0.3004697265625,-0.983184814453125,-0.0133514404296875,-0.1588287353515625
1714412571891542800,0.310542724609375,-0.986572265625,-0.013885498046875,-0.158203125
1714412571901617000,0.320616943359375,-0.9868927001953125,-0.01397705078125,-0.1541290283203125
1714412571911689700,0.330689697265625,-0.9849853515625,-0.014373779296875,-0.15185546875
1714412571921762800,0.3407626953125,-0.985595703125,-0.0133056640625,-0.1541595458984375
1714412571931836000,0.3508359375,-0.985198974609375,-0.011993408203125,-0.158416748046875
1714412571941909800,0.36090966796875,-0.9876708984375,-0.0131072998046875,-0.16314697265625
1714412571951982800,0.37098291015625,-0.9882354736328125,-0.0130767822265625,-0.1632843017578125
1714412571962056000,0.381055908203125,-0.9850921630859375,-0.011810302734375,-0.161712646484375
1714412571972129800,0.3911298828125,-0.98333740234375,-0.0115966796875,-0.1565399169921875
1714412571982203000,0.401202880859375,-0.978485107421875,-0.01080322265625,-0.1506195068359375
1714412571992275700,0.411275634765625,-0.975067138671875,-0.01116943359375,-0.14752197265625
1714412572002348800,0.421348876953125,-0.97772216796875,-0.0119171142578125,-0.149810791015625
1714412572012423000,0.4314228515625,-0.97991943359375,-0.011810302734375,-0.153564453125
1714412572022495700,0.441495849609375,-0.98406982421875,-0.00872802734375,-0.1502227783203125
1714412572032568800,0.45156884765625,-0.9864501953125,-0.0102081298828125,-0.1500396728515625
1714412572042643000,0.461642822265625,-0.9873809814453125,-0.0104217529296875,-0.1560211181640625
1714412572052715800,0.4717158203125,-0.985107421875,-0.0142822265625,-0.1569976806640625
1714412572062788600,0.48178857421875,-0.9779052734375,-0.0164337158203125,-0.154632568359375
1714412572072863000,0.491863037109375,-0.972869873046875,-0.0165252685546875,-0.158477783203125
1714412572082935800,0.501935791015625,-0.97607421875,-0.01702880859375,-0.1705169677734375
1714412572093008600,0.512008544921875,-0.9879302978515625,-0.0162506103515625,-0.17816162109375
1714412572103081700,0.522081787109375,-0.9984588623046875,-0.014129638671875,-0.1723175048828125
1714412572113155800,0.53215576171875,-1.0005340576171875,-0.0104522705078125,-0.1595916748046875
1714412572123228700,0.542228759765625,-0.99749755859375,-0.014892578125,-0.1485748291015625
1714412572133301800,0.5523017578125,-0.9849395751953125,-0.0190582275390625,-0.148193359375
1714412572143376000,0.5623759765625,-0.9755401611328125,-0.0171356201171875,-0.1557464599609375
1714412572153448700,0.57244873046875,-0.97320556640625,-0.017059326171875,-0.1665802001953125
1714412572163521800,0.582521728515625,-0.980621337890625,-0.016021728515625,-0.172882080078125
1714412572173594600,0.5925947265625,-0.98602294921875,-0.0115966796875,-0.1788177490234375
1714412572183668700,0.602668701171875,-0.991241455078125,-0.0135040283203125,-0.1753387451171875
1714412572193741800,0.612741943359375,-0.992340087890625,-0.01519775390625,-0.1678009033203125
1714412572203814700,0.622814697265625,-0.98931884765625,-0.011474609375,-0.158905029296875
1714412572213888800,0.632888671875,-0.983673095703125,-0.010955810546875,-0.1589813232421875
1714412572223961900,0.6429619140625,-0.9824371337890625,-0.0083160400390625,-0.1617584228515625
1714412572234034700,0.65303466796875,-0.98199462890625,-0.01226806640625,-0.16375732421875
1714412572244108800,0.66310888671875,-0.9791259765625,-0.0166015625,-0.16339111328125
1714412572254182000,0.673181884765625,-0.9727783203125,-0.0180816650390625,-0.161956787109375
1714412572264254700,0.683254638671875,-0.972747802734375,-0.018951416015625,-0.1674041748046875
1714412572274327800,0.693327880859375,-0.9775543212890625,-0.02001953125,-0.1727447509765625
1714412572284402000,0.70340185546875,-0.982574462890625,-0.019683837890625,-0.1770172119140625
1714412572294474800,0.713474853515625,-0.9901885986328125,-0.0152740478515625,-0.177398681640625
1714412572304547800,0.7235478515625,-0.992095947265625,-0.0150299072265625,-0.17266845703125
1714412572314622000,0.7336220703125,-0.9865570068359375,-0.0149688720703125,-0.1655426025390625
1714412572324694800,0.74369482421875,-0.98016357421875,-0.013458251953125,-0.167327880859375
1714412572334767900,0.753767822265625,-0.9795379638671875,-0.0103607177734375,-0.1715240478515625
1714412572344841700,0.763841796875,-0.9848785400390625,-0.0059051513671875,-0.173553466796875
1714412572354914800,0.773914794921875,-0.993896484375,-0.0054473876953125,-0.1734771728515625
1714412572364988000,0.78398779296875,-0.9995880126953125,-0.0074310302734375,-0.172607421875
1714412572375060700,0.794060791015625,-1.0005035400390625,-0.011749267578125,-0.1724090576171875
1714412572385134600,0.804134521484375,-0.996002197265625,-0.01397705078125,-0.1739044189453125
1714412572395208000,0.8142080078125,-0.9916229248046875,-0.011016845703125,-0.176177978515625
1714412572405280800,0.82428076171875,-0.9928741455078125,-0.0108489990234375,-0.176971435546875
1714412572415354600,0.834354736328125,-0.990692138671875,-0.01141357421875,-0.175445556640625
1714412572425428000,0.844427978515625,-0.9883880615234375,-0.011566162109375,-0.171539306640625
1714412572435500800,0.854500732421875,-0.9817962646484375,-0.0084075927734375,-0.167022705078125
1714412572445574000,0.864573974609375,-0.97784423828125,-0.0085906982421875,-0.1624908447265625
1714412572455647700,0.874647705078125,-0.9788818359375,-0.009185791015625,-0.1640625
1714412572465720800,0.884720947265625,-0.9806365966796875,-0.0121002197265625,-0.165191650390625
1714412572475794000,0.8947939453125,-0.9779510498046875,-0.0152587890625,-0.17242431640625
1714412572485867800,0.90486767578125,-0.9723663330078125,-0.014404296875,-0.173614501953125
1714412572495940900,0.91494091796875,-0.9722442626953125,-0.01336669921875,-0.1707305908203125
1714412572506014000,0.925013916015625,-0.97723388671875,-0.0131072998046875,-0.1718292236328125
1714412572516087800,0.935087890625,-0.9835968017578125,-0.013214111328125,-0.176849365234375
1714412572526160600,0.94516064453125,-0.994781494140625,-0.013214111328125,-0.18426513671875
1714412572536234000,0.95523388671875,-0.9981689453125,-0.01422119140625,-0.1843719482421875
1714412572546306800,0.965306884765625,-0.9944915771484375,-0.01361083984375,-0.1830291748046875
1714412572556380700,0.975380615234375,-0.9924774169921875,-0.0113983154296875,-0.182952880859375
1714412572566453800,0.985453857421875,-0.996490478515625,-0.0113983154296875,-0.1853485107421875
1714412572576526800,0.99552685546875,-0.9943695068359375,-0.01104736328125,-0.18072509765625
1714412572586600700,1.0056005859375,-0.99432373046875,-0.0107421875,-0.169036865234375
1714412572596673800,1.015673828125,-0.988189697265625,-0.01300048828125,-0.154266357421875
1714412572606747000,1.025746826171875,-0.9822540283203125,-0.01861572265625,-0.1464080810546875
1714412572616820700,1.03582080078125,-0.9769744873046875,-0.02008056640625,-0.1378173828125
1714412572626893800,1.045893798828125,-0.96893310546875,-0.021270751953125,-0.137847900390625
1714412572636966700,1.055966552734375,-0.966461181640625,-0.0244598388671875,-0.14703369140625
1714412572647040000,1.0660400390625,-0.967071533203125,-0.0274505615234375,-0.1510467529296875
1714412572657113900,1.07611376953125,-0.96856689453125,-0.0278167724609375,-0.1514892578125
1714412572667186700,1.086186767578125,-0.9716949462890625,-0.02191162109375,-0.1517333984375
1714412572677259500,1.096259521484375,-0.9781494140625,-0.015594482421875,-0.15423583984375
1714412572687333600,1.106333740234375,-0.9796600341796875,-0.00714111328125,-0.158355712890625
1714412572697406500,1.116406494140625,-0.9798583984375,-0.0007781982421875,-0.1607666015625
1714412572707479600,1.1264794921875,-0.979156494140625,-0.0023956298828125,-0.16192626953125
1714412572717552600,1.136552734375,-0.979217529296875,-0.00738525390625,-0.163726806640625
1714412572727626500,1.14662646484375,-0.986419677734375,-0.0074310302734375,-0.1621246337890625
1714412572737699600,1.156699462890625,-0.993438720703125,-0.0093994140625,-0.16619873046875
1714412572747772400,1.1667724609375,-0.995452880859375,-0.0149383544921875,-0.1649627685546875
1714412572757846500,1.176846435546875,-0.991119384765625,-0.020355224609375,-0.166961669921875
1714412572767919600,1.186919677734375,-0.9850006103515625,-0.02325439453125,-0.16497802734375
1714412572777992400,1.196992431640625,-0.984100341796875,-0.02972412109375,-0.1633453369140625
1714412572788065800,1.207065673828125,-0.9881744384765625,-0.03387451171875,-0.168731689453125
1714412572798139600,1.2171396484375,-0.98931884765625,-0.0304718017578125,-0.17596435546875
1714412572808212500,1.22721240234375,-0.9952392578125,-0.02520751953125,-0.1832122802734375
1714412572818285600,1.23728564453125,-0.9989166259765625,-0.0233612060546875,-0.1791229248046875
1714412572828359700,1.247359619140625,-0.997802734375,-0.0209503173828125,-0.1820831298828125
1714412572838432500,1.2574326171875,-0.9956512451171875,-0.02032470703125,-0.1786041259765625
1714412572848505600,1.267505615234375,-0.9887237548828125,-0.0198516845703125,-0.17376708984375
1714412572858579700,1.277579833984375,-0.979339599609375,-0.0182647705078125,-0.1728668212890625
1714412572868652500,1.287652587890625,-0.9727020263671875,-0.01715087890625,-0.1640167236328125
1714412572878725600,1.2977255859375,-0.9699554443359375,-0.0200653076171875,-0.1606292724609375
1714412572888798500,1.307798583984375,-0.9685821533203125,-0.021728515625,-0.163970947265625
1714412572898872600,1.31787255859375,-0.972015380859375,-0.022369384765625,-0.1693878173828125
1714412572908945700,1.327945556640625,-0.97637939453125,-0.0236053466796875,-0.1737213134765625
1714412572919018500,1.3380185546875,-0.98248291015625,-0.0234222412109375,-0.17376708984375
1714412572929092600,1.348092529296875,-0.9881591796875,-0.0241241455078125,-0.16412353515625
1714412572939165700,1.358165771484375,-0.988677978515625,-0.025604248046875,-0.1601104736328125
1714412572949238500,1.368238525390625,-0.9878387451171875,-0.0204010009765625,-0.1648712158203125
1714412572959311400,1.378311279296875,-0.9882659912109375,-0.018798828125,-0.17108154296875
1714412572969385700,1.3883857421875,-0.985321044921875,-0.0168609619140625,-0.17486572265625
1714412572979458600,1.39845849609375,-0.985565185546875,-0.01611328125,-0.1756744384765625
1714412572989531400,1.408531494140625,-0.987396240234375,-0.018524169921875,-0.183319091796875
1714412572999605800,1.418605712890625,-0.9888458251953125,-0.019317626953125,-0.187591552734375
1714412573009678600,1.4286787109375,-0.9933929443359375,-0.01934814453125,-0.1858978271484375
1714412573019751400,1.43875146484375,-0.9932861328125,-0.0201873779296875,-0.1791229248046875
1714412573029824500,1.448824462890625,-0.9838104248046875,-0.0188446044921875,-0.171966552734375
1714412573039898600,1.458898681640625,-0.9694976806640625,-0.0185546875,-0.16534423828125
1714412573049971500,1.468971435546875,-0.9645233154296875,-0.017486572265625,-0.1587371826171875
1714412573060044500,1.47904443359375,-0.9647979736328125,-0.0170135498046875,-0.1507415771484375
1714412573070118700,1.48911865234375,-0.9673309326171875,-0.01544189453125,-0.150970458984375
1714412573080191500,1.49919140625,-0.9736480712890625,-0.0126190185546875,-0.1595001220703125
1714412573090264600,1.5092646484375,-0.9855804443359375,-0.011932373046875,-0.1767425537109375
1714412573100338400,1.51933837890625,-0.997528076171875,-0.007568359375,-0.1898956298828125
1714412573110411500,1.52941162109375,-1.0085906982421875,-0.0054168701171875,-0.1978912353515625
1714412573120484600,1.539484619140625,-1.0114593505859375,-0.003814697265625,-0.19647216796875
1714412573130557400,1.549557373046875,-1.00836181640625,-0.00390625,-0.18634033203125
1714412573140631600,1.559631591796875,-1.002593994140625,-0.004791259765625,-0.1746063232421875
1714412573150704600,1.56970458984375,-0.9931182861328125,-0.0048980712890625,-0.1596221923828125
1714412573160777500,1.579777587890625,-0.9857177734375,-0.0042724609375,-0.14581298828125
1714412573170851600,1.5898515625,-0.9782867431640625,-0.006317138671875,-0.1397857666015625
1714412573180924700,1.599924560546875,-0.97576904296875,-0.00872802734375,-0.13812255859375
1714412573190997500,1.60999755859375,-0.974639892578125,-0.010284423828125,-0.138336181640625
1714412573201070600,1.620070556640625,-0.973175048828125,-0.0109100341796875,-0.1400299072265625
1714412573211144400,1.63014453125,-0.9753265380859375,-0.007476806640625,-0.147186279296875
1714412573221217500,1.640217529296875,-0.97796630859375,-0.0036773681640625,-0.1572418212890625
1714412573231290600,1.65029052734375,-0.9824371337890625,-0.0016021728515625,-0.164093017578125
1714412573241364500,1.660364501953125,-0.9860076904296875,-0.000823974609375,-0.165557861328125
1714412573251437600,1.6704375,-0.9891357421875,-0.0005340576171875,-0.1621856689453125
1714412573261510700,1.6805107421875,-0.9903564453125,-0.001251220703125,-0.1601104736328125
1714412573271583500,1.69058349609375,-0.9888763427734375,-0.00335693359375,-0.1515045166015625
1714412573281657300,1.7006572265625,-0.9880828857421875,-0.0039215087890625,-0.1496124267578125
1714412573291730700,1.710730712890625,-0.98681640625,-0.005706787109375,-0.1521453857421875
1714412573301803500,1.720803466796875,-0.98724365234375,-0.0096588134765625,-0.1547088623046875
1714412573311877400,1.73087744140625,-0.9871063232421875,-0.0126800537109375,-0.1526336669921875
1714412573321950700,1.74095068359375,-0.9882049560546875,-0.0124053955078125,-0.152618408203125
1714412573332023600,1.7510234375,-0.990753173828125,-0.010040283203125,-0.1582794189453125
1714412573342096600,1.7610966796875,-0.987396240234375,-0.0100860595703125,-0.1605072021484375
1714412573352170500,1.77117041015625,-0.981414794921875,-0.0108642578125,-0.157012939453125
1714412573362243600,1.78124365234375,-0.9798583984375,-0.0128936767578125,-0.1550445556640625
1714412573372316700,1.791316650390625,-0.985137939453125,-0.011077880859375,-0.1548309326171875
1714412573382390500,1.801390625,-0.98687744140625,-0.01123046875,-0.1540985107421875
1714412573392463400,1.81146337890625,-0.9806060791015625,-0.0064544677734375,-0.1548614501953125
1714412573402536700,1.82153662109375,-0.979644775390625,-0.0037994384765625,-0.1555938720703125
1714412573412609500,1.831609619140625,-0.99066162109375,-0.00543212890625,-0.158233642578125
1714412573422683400,1.841683349609375,-0.9980010986328125,-0.004974365234375,-0.1556396484375
1714412573432756700,1.8517568359375,-0.9919281005859375,-0.0060577392578125,-0.1558990478515625
1714412573442829600,1.86182958984375,-0.9858856201171875,-0.0087127685546875,-0.15582275390625
1714412573452903400,1.8719033203125,-0.9857025146484375,-0.0083160400390625,-0.1559906005859375
1714412573462976500,1.8819765625,-0.986297607421875,-0.006683349609375,-0.1572418212890625
1714412573473049600,1.892049560546875,-0.982086181640625,-0.0051116943359375,-0.15576171875
1714412573483122700,1.902122802734375,-0.9802093505859375,-0.0045166015625,-0.1572113037109375
1714412573493196500,1.912196533203125,-0.98333740234375,-0.0046234130859375,-0.1578216552734375
1714412573503269600,1.92226953125,-0.989990234375,-0.0040130615234375,-0.159637451171875
1714412573513342700,1.9323427734375,-0.9944610595703125,-0.005096435546875,-0.16302490234375
1714412573523416600,1.94241650390625,-0.9932708740234375,-0.004608154296875,-0.1628875732421875
1714412573533489400,1.952489501953125,-0.9833221435546875,-0.0060577392578125,-0.162322998046875
1714412573543562800,1.962562744140625,-0.9764556884765625,-0.0043792724609375,-0.158935546875
1714412573553636600,1.97263671875,-0.9762420654296875,-0.0023040771484375,-0.1552276611328125
1714412573563709400,1.98270947265625,-0.9811859130859375,-0.0039520263671875,-0.1531524658203125
1714412573573782500,1.992782470703125,-0.9815673828125,-0.0050201416015625,-0.1522979736328125
1714412573583855600,2.002855712890625,-0.9840850830078125,-0.007080078125,-0.1553955078125
1714412573593929500,2.012929443359375,-0.9886322021484375,-0.0058746337890625,-0.1585540771484375
1714412573604002600,2.02300244140625,-0.9925079345703125,-0.00787353515625,-0.1582489013671875
1714412573614075600,2.03307568359375,-0.9914703369140625,-0.0078277587890625,-0.156219482421875
1714412573624149500,2.0431494140625,-0.9864349365234375,-0.0073394775390625,-0.158416748046875
1714412573634222600,2.05322265625,-0.98101806640625,-0.0078582763671875,-0.1613311767578125
1714412573644295400,2.06329541015625,-0.97589111328125,-0.0093536376953125,-0.1687164306640625
1714412573654368500,2.073368408203125,-0.9774627685546875,-0.00958251953125,-0.16363525390625
1714412573664442600,2.083442626953125,-0.9804840087890625,-0.0081329345703125,-0.158721923828125
1714412573674515700,2.093515625,-0.989105224609375,-0.0080413818359375,-0.15753173828125
1714412573684588800,2.1035888671875,-0.9967803955078125,-0.0082550048828125,-0.1625518798828125
1714412573694663000,2.113662841796875,-1.0046539306640625,-0.0113983154296875,-0.1605682373046875
1714412573704735700,2.12373583984375,-1.007568359375,-0.0118255615234375,-0.1545562744140625
1714412573714808600,2.13380859375,-1.003204345703125,-0.012939453125,-0.1480255126953125
1714412573724882000,2.1438818359375,-0.9948577880859375,-0.0113677978515625,-0.1436920166015625
1714412573734955800,2.153955810546875,-0.9861602783203125,-0.0111846923828125,-0.14495849609375
1714412573745028600,2.164028564453125,-0.98284912109375,-0.0098724365234375,-0.1492919921875
1714412573755102000,2.17410205078125,-0.979461669921875,-0.0082855224609375,-0.159637451171875
1714412573765175800,2.18417578125,-0.9813079833984375,-0.0083465576171875,-0.168853759765625
1714412573775248600,2.19424853515625,-0.9833984375,-0.00787353515625,-0.17462158203125
1714412573785321700,2.20432177734375,-0.984039306640625,-0.0067291259765625,-0.175048828125
1714412573795394800,2.214394775390625,-0.983917236328125,-0.0050201416015625,-0.17230224609375
1714412573805468700,2.22446875,-0.9836273193359375,-0.0042877197265625,-0.162567138671875
1714412573815541800,2.234541748046875,-0.9860076904296875,-0.003753662109375,-0.1509857177734375
1714412573825614800,2.24461474609375,-0.986602783203125,-0.0025634765625,-0.1463623046875
1714412573835688700,2.254688720703125,-0.986480712890625,0.0005340576171875,-0.1414642333984375
1714412573845761800,2.26476171875,-0.9844512939453125,0.000823974609375,-0.137603759765625
1714412573855834600,2.274834716796875,-0.9820404052734375,-0.002197265625,-0.140228271484375
1714412573865908000,2.284907958984375,-0.9834747314453125,-0.0043487548828125,-0.1490020751953125
1714412573875981800,2.29498193359375,-0.984130859375,-0.0048980712890625,-0.1550445556640625
1714412573886054700,2.3050546875,-0.9837646484375,-0.005126953125,-0.1576690673828125
1714412573896127700,2.315127685546875,-0.9858856201171875,-0.0056915283203125,-0.160064697265625
1714412573906201900,2.325201904296875,-0.987823486328125,-0.00665283203125,-0.1579742431640625
1714412573916274700,2.335274658203125,-0.9865264892578125,-0.00341796875,-0.1533966064453125
1714412573926347800,2.34534765625,-0.982879638671875,0.000091552734375,-0.146728515625
1714412573936420900,2.3554208984375,-0.980987548828125,0.001800537109375,-0.1445159912109375
1714412573946494700,2.36549462890625,-0.97760009765625,0.0041351318359375,-0.1468658447265625
1714412573956567800,2.37556787109375,-0.9771881103515625,0.00335693359375,-0.1497955322265625
1714412573966640600,2.385640625,-0.98016357421875,0.0033111572265625,-0.154937744140625
1714412573976714800,2.39571484375,-0.9858856201171875,0.00006103515625,-0.155487060546875
1714412573986787800,2.405787841796875,-0.9889373779296875,-0.001220703125,-0.15582275390625
1714412573996860700,2.415860595703125,-0.994140625,-0.002685546875,-0.1593017578125
1714412574006934000,2.42593408203125,-0.9943084716796875,-0.0037994384765625,-0.1635894775390625
1714412574017007900,2.4360078125,-0.9944305419921875,-0.00537109375,-0.1634674072265625
1714412574027080700,2.446080810546875,-0.99365234375,-0.006439208984375,-0.16168212890625
1714412574037153800,2.45615380859375,-0.991180419921875,-0.0055999755859375,-0.1558685302734375
1714412574047228000,2.466227783203125,-0.9838409423828125,-0.00494384765625,-0.1543426513671875
1714412574057300700,2.47630078125,-0.979583740234375,-0.0048675537109375,-0.1553802490234375
1714412574067373800,2.486373779296875,-0.9819793701171875,-0.0051422119140625,-0.1574554443359375
1714412574077446700,2.49644677734375,-0.9866180419921875,-0.0078277587890625,-0.160614013671875
1714412574087520800,2.506520751953125,-0.9950714111328125,-0.00885009765625,-0.1632537841796875
1714412574097593900,2.51659375,-1.003326416015625,-0.009429931640625,-0.16485595703125
1714412574107666700,2.526666748046875,-1.00469970703125,-0.0095367431640625,-0.1600341796875
1714412574117740800,2.53674072265625,-0.9911956787109375,-0.0076141357421875,-0.1554107666015625
1714412574127814000,2.54681396484375,-0.9783477783203125,-0.006011962890625,-0.1541748046875
1714412574137886700,2.55688671875,-0.97271728515625,-0.00909423828125,-0.1556854248046875
1714412574147959800,2.566959716796875,-0.9775848388671875,-0.0108184814453125,-0.155364990234375
1714412574158034000,2.577033935546875,-0.983428955078125,-0.0097808837890625,-0.1533660888671875
1714412574168106800,2.587106689453125,-0.9884185791015625,-0.0073394775390625,-0.150634765625
1714412574178179800,2.597179931640625,-0.9851837158203125,-0.003387451171875,-0.1501312255859375
1714412574188254000,2.60725390625,-0.98345947265625,-0.0037689208984375,-0.153656005859375
1714412574198326800,2.617326904296875,-0.98504638671875,-0.0040130615234375,-0.1556396484375
1714412574208400000,2.62739990234375,-0.9891510009765625,-0.00384521484375,-0.1584625244140625
1714412574218472700,2.63747265625,-0.9903411865234375,-0.0047149658203125,-0.1596221923828125
1714412574228546800,2.647546875,-0.9896087646484375,-0.0023040771484375,-0.1595611572265625
1714412574238620000,2.657619873046875,-0.9839935302734375,-0.0018310546875,-0.158935546875
1714412574248692700,2.667692626953125,-0.9820709228515625,-0.0026702880859375,-0.1557464599609375
1714412574258766800,2.677766845703125,-0.9828338623046875,-0.0022125244140625,-0.1571502685546875
1714412574268840000,2.68783984375,-0.9847412109375,-0.0030975341796875,-0.154754638671875
1714412574278912800,2.697912841796875,-0.9840087890625,-0.00518798828125,-0.1533203125
1714412574288985900,2.70798583984375,-0.9861602783203125,-0.004241943359375,-0.1563873291015625
1714412574299060000,2.71806005859375,-0.9842376708984375,-0.0038909912109375,-0.155181884765625
1714412574309132800,2.7281328125,-0.982940673828125,-0.00677490234375,-0.1563262939453125
1714412574319206000,2.738205810546875,-0.9864044189453125,-0.0067138671875,-0.156707763671875
1714412574329280000,2.748280029296875,-0.99163818359375,-0.00628662109375,-0.15679931640625
1714412574339352800,2.758352783203125,-0.9951324462890625,-0.006439208984375,-0.15673828125
1714412574349426000,2.768426025390625,-0.9909210205078125,-0.0053863525390625,-0.1551513671875
1714412574359498800,2.778498779296875,-0.987701416015625,-0.0051727294921875,-0.15728759765625
1714412574369572900,2.78857275390625,-0.9874114990234375,-0.0041656494140625,-0.158203125
1714412574379646000,2.79864599609375,-0.9866943359375,-0.00689697265625,-0.1563873291015625
1714412574389718800,2.80871875,-0.98345947265625,-0.0055999755859375,-0.1563873291015625
1714412574399793000,2.81879296875,-0.9827880859375,-0.0063934326171875,-0.1558990478515625
1714412574409866000,2.828865966796875,-0.9813995361328125,-0.006072998046875,-0.155181884765625
1714412574419938800,2.838938720703125,-0.9836273193359375,-0.0061798095703125,-0.156097412109375
1714412574430011600,2.84901171875,-0.9855804443359375,-0.0060272216796875,-0.1553192138671875
1714412574440085800,2.859085693359375,-0.98480224609375,-0.0061492919921875,-0.1533660888671875
1714412574450158800,2.869158935546875,-0.984466552734375,-0.0066375732421875,-0.151580810546875
1714412574460231700,2.879231689453125,-0.98486328125,-0.0067596435546875,-0.1534423828125
1714412574470305800,2.889305908203125,-0.98419189453125,-0.0054931640625,-0.153717041015625
1714412574480379000,2.89937890625,-0.98541259765625,-0.0046844482421875,-0.15460205078125
1714412574490451700,2.90945166015625,-0.984649658203125,-0.0049896240234375,-0.1554412841796875
1714412574500524800,2.91952490234375,-0.98492431640625,-0.0058441162109375,-0.1570281982421875
1714412574510599000,2.929598876953125,-0.9855499267578125,-0.0043792724609375,-0.15667724609375
1714412574520671700,2.939671630859375,-0.9858856201171875,-0.005462646484375,-0.15655517578125
1714412574530744800,2.949744873046875,-0.9871673583984375,-0.0059814453125,-0.159271240234375
1714412574540819000,2.95981884765625,-0.987762451171875,-0.0068206787109375,-0.156494140625
1714412574550891800,2.969891845703125,-0.9880828857421875,-0.0052032470703125,-0.156585693359375
1714412574560964900,2.97996484375,-0.9875030517578125,-0.0061492919921875,-0.1586151123046875
1714412574571037700,2.99003759765625,-0.988433837890625,-0.0062713623046875,-0.156707763671875
1714412574581111800,3.00011181640625,-0.989471435546875,-0.0049591064453125,-0.156036376953125
1714412574591185000,3.010184814453125,-0.989105224609375,-0.004364013671875,-0.156494140625
1714412574601257700,3.0202578125,-0.9890594482421875,-0.00531005859375,-0.15576171875
1714412574611331600,3.03033154296875,-0.988189697265625,-0.006317138671875,-0.156707763671875
1714412574621405000,3.040405029296875,-0.988800048828125,-0.005462646484375,-0.1561431884765625
1714412574631477800,3.050477783203125,-0.987640380859375,-0.004119873046875,-0.156341552734375
1714412574641550800,3.06055078125,-0.9844818115234375,-0.0069732666015625,-0.157928466796875
1714412574651625000,3.070625,-0.984649658203125,-0.005767822265625,-0.1556396484375
1714412574661697800,3.08069775390625,-0.98468017578125,-0.005767822265625,-0.15521240234375
1714412574671771600,3.090771728515625,-0.9857025146484375,-0.006622314453125,-0.155670166015625
1714412574681845800,3.100845703125,-0.9843292236328125,-0.0061492919921875,-0.1548004150390625
1714412574691918600,3.110918701171875,-0.9851837158203125,-0.0063934326171875,-0.1536407470703125
1714412574701991700,3.12099169921875,-0.9850616455078125,-0.00531005859375,-0.1566925048828125
1714412574712064500,3.131064453125,-0.985504150390625,-0.0063018798828125,-0.1562957763671875
1714412574722138600,3.141138671875,-0.9854888916015625,-0.0049896240234375,-0.15606689453125
1714412574732211700,3.151211669921875,-0.9869384765625,-0.0051116943359375,-0.1542816162109375
1714412574742284500,3.161284423828125,-0.9863739013671875,-0.0063629150390625,-0.155670166015625
1714412574752358700,3.171358642578125,-0.9870147705078125,-0.0068359375,-0.156402587890625
1714412574762431700,3.181431640625,-0.9876556396484375,-0.0064849853515625,-0.1572418212890625
1714412574772504600,3.191504638671875,-0.987701416015625,-0.0046234130859375,-0.157470703125
1714412574782577400,3.201577392578125,-0.9854736328125,-0.0049591064453125,-0.1568450927734375
1714412574792651800,3.21165185546875,-0.9866485595703125,-0.00616455078125,-0.1569976806640625
1714412574802724600,3.221724609375,-0.986358642578125,-0.0056610107421875,-0.1555328369140625
1714412574812797400,3.23179736328125,-0.9847259521484375,-0.0050506591796875,-0.15533447265625
1714412574822871800,3.241871826171875,-0.9877166748046875,-0.00421142578125,-0.1587066650390625
1714412574832944600,3.251944580078125,-0.9906005859375,-0.0068511962890625,-0.157135009765625
1714412574843017500,3.262017578125,-0.989166259765625,-0.006988525390625,-0.156890869140625
1714412574853090600,3.272090576171875,-0.9882965087890625,-0.005584716796875,-0.156982421875
1714412574863164700,3.28216455078125,-0.9865570068359375,-0.0062408447265625,-0.1578369140625
1714412574873237500,3.292237548828125,-0.9856719970703125,-0.00689697265625,-0.156951904296875
1714412574883310600,3.302310546875,-0.98681640625,-0.0078125,-0.158660888671875
1714412574893383400,3.312383544921875,-0.9864044189453125,-0.00677490234375,-0.15765380859375
1714412574903457500,3.32245751953125,-0.98565673828125,-0.0066680908203125,-0.156036376953125
1714412574913530600,3.332530517578125,-0.9854583740234375,-0.007537841796875,-0.1555023193359375
1714412574923603500,3.342603515625,-0.986602783203125,-0.0055694580078125,-0.1539459228515625
1714412574933677600,3.352677490234375,-0.9872894287109375,-0.0057220458984375,-0.15496826171875
1714412574943750700,3.362750732421875,-0.986114501953125,-0.00616455078125,-0.1537017822265625
1714412574953823500,3.372823486328125,-0.985687255859375,-0.005126953125,-0.1551666259765625
1714412574963896600,3.382896484375,-0.985382080078125,-0.0045623779296875,-0.157379150390625
1714412574973970700,3.392970703125,-0.985321044921875,-0.0064697265625,-0.1574554443359375
1714412574984043500,3.40304345703125,-0.986724853515625,-0.00616455078125,-0.1579132080078125
1714412574994116600,3.41311669921875,-0.987640380859375,-0.0059051513671875,-0.158538818359375
1714412575004190700,3.423190673828125,-0.98828125,-0.006500244140625,-0.1578369140625
1714412575014263600,3.433263671875,-0.987030029296875,-0.0064849853515625,-0.156097412109375
1714412575024336600,3.443336669921875,-0.9859466552734375,-0.0054931640625,-0.1561431884765625
1714412575034409500,3.453409423828125,-0.9873046875,-0.006317138671875,-0.15557861328125
1714412575044483600,3.463483642578125,-0.9870147705078125,-0.0065460205078125,-0.1558837890625
1714412575054556700,3.473556640625,-0.98663330078125,-0.005706787109375,-0.1569061279296875
1714412575064629500,3.48362939453125,-0.9870147705078125,-0.004730224609375,-0.1584320068359375
1714412575074703600,3.49370361328125,-0.9864044189453125,-0.0064849853515625,-0.1575469970703125
1714412575084776700,3.503776611328125,-0.986114501953125,-0.00787353515625,-0.1590728759765625
1714412575094849500,3.513849609375,-0.986419677734375,-0.004913330078125,-0.1574249267578125
1714412575104922600,3.523922607421875,-0.986785888671875,-0.00653076171875,-0.1564178466796875
1714412575114996700,3.533996826171875,-0.984893798828125,-0.0071258544921875,-0.154754638671875
1714412575125069600,3.544069580078125,-0.9848785400390625,-0.0062255859375,-0.1580352783203125
1714412575135142700,3.554142578125,-0.9871826171875,-0.005340576171875,-0.1574554443359375
1714412575145216800,3.564216796875,-0.985992431640625,-0.00537109375,-0.1572113037109375
1714412575155289600,3.57428955078125,-0.9856719970703125,-0.0054473876953125,-0.157989501953125
1714412575165362700,3.58436279296875,-0.98370361328125,-0.0050201416015625,-0.1569366455078125
1714412575175435500,3.594435546875,-0.9849700927734375,-0.0073699951171875,-0.1583709716796875
1714412575185509600,3.604509521484375,-0.986358642578125,-0.006683349609375,-0.1570281982421875
1714412575195582700,3.614582763671875,-0.986541748046875,-0.005706787109375,-0.155914306640625
1714412575205655600,3.624655517578125,-0.9869537353515625,-0.006439208984375,-0.1571197509765625
1714412575215729700,3.634729736328125,-0.984832763671875,-0.005859375,-0.1563720703125
1714412575225802800,3.644802734375,-0.9858245849609375,-0.0055084228515625,-0.156341552734375
1714412575235875600,3.65487548828125,-0.986846923828125,-0.0048370361328125,-0.157501220703125
1714412575245948700,3.66494873046875,-0.9887237548828125,-0.0059814453125,-0.157470703125
1714412575256022800,3.675022705078125,-0.98583984375,-0.0047760009765625,-0.1599273681640625
1714412575266095600,3.685095703125,-0.9867706298828125,-0.006317138671875,-0.1586761474609375
1714412575276168700,3.695168701171875,-0.98736572265625,-0.005340576171875,-0.15924072265625
1714412575286241500,3.705241455078125,-0.9869384765625,-0.0058746337890625,-0.1565399169921875
1714412575296315600,3.715315673828125,-0.9859771728515625,-0.0047760009765625,-0.1549835205078125
1714412575306388700,3.725388671875,-0.9847869873046875,-0.0049591064453125,-0.1555023193359375
1714412575316461600,3.735461669921875,-0.9839935302734375,-0.0072174072265625,-0.156158447265625
1714412575326535700,3.74553564453125,-0.9849395751953125,-0.00775146484375,-0.15582275390625
1714412575336608800,3.75560888671875,-0.9876556396484375,-0.0057525634765625,-0.157073974609375
1714412575346681600,3.765681640625,-0.9874725341796875,-0.0059814453125,-0.1574249267578125
1714412575356754400,3.77575439453125,-0.984344482421875,-0.005401611328125,-0.155426025390625
1714412575366828800,3.785828857421875,-0.98577880859375,-0.006072998046875,-0.156036376953125
1714412575376901600,3.795901611328125,-0.986053466796875,-0.0064849853515625,-0.15814208984375
1714412575386974500,3.805974365234375,-0.985565185546875,-0.0051422119140625,-0.1560516357421875
1714412575397048800,3.816048828125,-0.9854888916015625,-0.006195068359375,-0.1573486328125
1714412575407121700,3.82612158203125,-0.9845733642578125,-0.0059967041015625,-0.15704345703125
1714412575417194500,3.836194580078125,-0.985321044921875,-0.0051727294921875,-0.15716552734375
1714412575427267600,3.846267578125,-0.9870758056640625,-0.0059967041015625,-0.1598663330078125
1714412575437341700,3.856341796875,-0.9864654541015625,-0.005462646484375,-0.158050537109375
1714412575447414500,3.86641455078125,-0.9853057861328125,-0.00634765625,-0.157135009765625
1714412575457487600,3.876487548828125,-0.9861602783203125,-0.0060577392578125,-0.156768798828125
1714412575467560400,3.886560546875,-0.9852447509765625,-0.00457763671875,-0.15740966796875
1714412575477634600,3.896634521484375,-0.986053466796875,-0.0053558349609375,-0.15618896484375
1714412575487707600,3.906707763671875,-0.986968994140625,-0.0042266845703125,-0.156890869140625
1714412575497780500,3.916780517578125,-0.986663818359375,-0.0055694580078125,-0.1578521728515625
1714412575507854600,3.9268544921875,-0.987213134765625,-0.0055084228515625,-0.15740966796875
1714412575517927700,3.936927734375,-0.9862823486328125,-0.0047149658203125,-0.1578369140625
1714412575528000500,3.94700048828125,-0.9863739013671875,-0.006805419921875,-0.1560211181640625
1714412575538073600,3.957073486328125,-0.9854888916015625,-0.0071258544921875,-0.1558685302734375
1714412575548147700,3.967147705078125,-0.98614501953125,-0.0071563720703125,-0.1571807861328125
1714412575558220500,3.977220458984375,-0.9851837158203125,-0.0053253173828125,-0.158721923828125
1714412575568293600,3.987293701171875,-0.9847412109375,-0.0048828125,-0.1573028564453125
1714412575578367700,3.99736767578125,-0.9861907958984375,-0.0057830810546875,-0.1573944091796875
1714412575588440600,4.007440673828125,-0.9864959716796875,-0.0057525634765625,-0.1578521728515625
1714412575598513700,4.017513671875,-0.9864349365234375,-0.0053558349609375,-0.155609130859375
1714412575608586500,4.02758642578125,-0.9871978759765625,-0.0052947998046875,-0.1565399169921875
1714412575618660600,4.03766064453125,-0.98614501953125,-0.0048980712890625,-0.1566009521484375
1714412575628733700,4.047733642578125,-0.986846923828125,-0.00616455078125,-0.158721923828125
1714412575638806500,4.057806640625,-0.988128662109375,-0.005950927734375,-0.15863037109375
1714412575648880600,4.067880615234375,-0.9857330322265625,-0.005828857421875,-0.1579132080078125
1714412575658953700,4.07795361328125,-0.9851837158203125,-0.0067138671875,-0.15771484375
1714412575669026600,4.088026611328125,-0.9857177734375,-0.004730224609375,-0.159027099609375
1714412575679099400,4.098099365234375,-0.98529052734375,-0.004669189453125,-0.157989501953125
1714412575689173500,4.108173583984375,-0.9853363037109375,-0.0066986083984375,-0.157562255859375
1714412575699246300,4.118246337890625,-0.9859771728515625,-0.0047607421875,-0.157257080078125
1714412575709319400,4.1283193359375,-0.9889984130859375,-0.00555419921875,-0.158050537109375
1714412575719392500,4.138392578125,-0.9887847900390625,-0.008544921875,-0.1567840576171875
1714412575729466400,4.14846630859375,-0.9879150390625,-0.004852294921875,-0.1561737060546875
1714412575739539500,4.15853955078125,-0.9864044189453125,-0.0046234130859375,-0.1583709716796875
1714412575749612300,4.1686123046875,-0.9858245849609375,-0.006927490234375,-0.157379150390625
1714412575759686400,4.178686279296875,-0.985076904296875,-0.006378173828125,-0.158935546875
1714412575769759500,4.188759521484375,-0.98455810546875,-0.0066070556640625,-0.1588897705078125
1714412575779832300,4.198832275390625,-0.985504150390625,-0.004791259765625,-0.157257080078125
1714412575789905700,4.20890576171875,-0.985870361328125,-0.007568359375,-0.156585693359375
1714412575799979500,4.2189794921875,-0.9878387451171875,-0.0066680908203125,-0.15533447265625
1714412575810052400,4.22905224609375,-0.9876708984375,-0.0063323974609375,-0.1556396484375
1714412575820125400,4.23912548828125,-0.9870758056640625,-0.005126953125,-0.1568145751953125
1714412575830199600,4.249199462890625,-0.985687255859375,-0.0062408447265625,-0.1558837890625
1714412575840272400,4.2592724609375,-0.987030029296875,-0.004791259765625,-0.15576171875
1714412575850345500,4.269345458984375,-0.9859466552734375,-0.003814697265625,-0.15704345703125
1714412575860418300,4.279418212890625,-0.9849700927734375,-0.005767822265625,-0.1575164794921875
1714412575870492400,4.289492431640625,-0.9857635498046875,-0.005523681640625,-0.158599853515625
1714412575880565500,4.2995654296875,-0.9853515625,-0.0052032470703125,-0.157623291015625
1714412575890638300,4.309638427734375,-0.988433837890625,-0.0058135986328125,-0.15533447265625
1714412575900711400,4.31971142578125,-0.9861297607421875,-0.0058746337890625,-0.1560211181640625
1714412575910785500,4.32978564453125,-0.9858856201171875,-0.0064544677734375,-0.1562652587890625
1714412575920858400,4.3398583984375,-0.9853515625,-0.0062255859375,-0.154937744140625
1714412575930931500,4.349931396484375,-0.98443603515625,-0.0059661865234375,-0.1555938720703125
1714412575941005600,4.360005615234375,-0.988372802734375,-0.005767822265625,-0.15771484375
1714412575951078400,4.370078369140625,-0.98681640625,-0.00506591796875,-0.1581573486328125
1714412575961151500,4.3801513671875,-0.9862213134765625,-0.00738525390625,-0.1556396484375
1714412575971224600,4.390224609375,-0.9865875244140625,-0.0057525634765625,-0.1562957763671875
1714412575981298400,4.40029833984375,-0.9859466552734375,-0.006805419921875,-0.1586456298828125
1714412575991371500,4.41037158203125,-0.986968994140625,-0.005462646484375,-0.158233642578125
1714412576001444400,4.4204443359375,-0.9864654541015625,-0.0067901611328125,-0.1552886962890625
1714412576011518500,4.4305185546875,-0.987091064453125,-0.0067596435546875,-0.1566314697265625
1714412576021591600,4.440591552734375,-0.986907958984375,-0.0062713623046875,-0.158355712890625
1714412576031664400,4.450664306640625,-0.9841766357421875,-0.00592041015625,-0.1564483642578125
1714412576041737500,4.460737548828125,-0.986297607421875,-0.0042572021484375,-0.1573638916015625
1714412576051811600,4.4708115234375,-0.9869384765625,-0.00384521484375,-0.1578826904296875
1714412576061884400,4.480884521484375,-0.9863128662109375,-0.00640869140625,-0.1590576171875
1714412576071957200,4.490957275390625,-0.9866180419921875,-0.0052032470703125,-0.1575469970703125
1714412576082031600,4.501031494140625,-0.98883056640625,-0.0057830810546875,-0.15740966796875
1714412576092104400,4.5111044921875,-0.9872894287109375,-0.007354736328125,-0.155975341796875
1714412576102177300,4.52117724609375,-0.9847869873046875,-0.0071258544921875,-0.15618896484375
1714412576112250400,4.53125048828125,-0.9847869873046875,-0.00616455078125,-0.1570281982421875
1714412576122324500,4.541324462890625,-0.9860076904296875,-0.00543212890625,-0.1583404541015625
1714412576132397300,4.551397216796875,-0.9868011474609375,-0.0055694580078125,-0.1587982177734375
1714412576142470400,4.561470458984375,-0.9873199462890625,-0.0059967041015625,-0.1578826904296875
1714412576152543500,4.57154345703125,-0.9893035888671875,-0.0060577392578125,-0.157958984375
1714412576162617300,4.581617431640625,-0.98681640625,-0.005645751953125,-0.1571044921875
1714412576172690400,4.5916904296875,-0.986419677734375,-0.00604248046875,-0.1572265625
1714412576182763300,4.60176318359375,-0.98590087890625,-0.00439453125,-0.1566619873046875
1714412576192837400,4.61183740234375,-0.985626220703125,-0.0064697265625,-0.158416748046875
1714412576202910500,4.621910400390625,-0.98486328125,-0.005859375,-0.157012939453125
1714412576212983300,4.6319833984375,-0.9847564697265625,-0.0050811767578125,-0.1555328369140625
1714412576223056600,4.642056640625,-0.9876556396484375,-0.0066680908203125,-0.1571502685546875
1714412576233130500,4.652130615234375,-0.98699951171875,-0.0069122314453125,-0.1553802490234375
1714412576243203300,4.662203369140625,-0.9874267578125,-0.00531005859375,-0.157379150390625
1714412576253276400,4.6722763671875,-0.9866180419921875,-0.004852294921875,-0.158355712890625
1714412576263349500,4.682349609375,-0.9863739013671875,-0.0061187744140625,-0.15606689453125
1714412576273423400,4.69242333984375,-0.9864044189453125,-0.004791259765625,-0.1577606201171875
1714412576283496400,4.702496337890625,-0.9854583740234375,-0.0052642822265625,-0.1595458984375
1714412576293569300,4.7125693359375,-0.9853363037109375,-0.0054779052734375,-0.158111572265625
1714412576303643400,4.722643310546875,-0.9860992431640625,-0.0070037841796875,-0.1581878662109375
1714412576313716500,4.732716552734375,-0.9868316650390625,-0.0064544677734375,-0.1575164794921875
1714412576323789300,4.742789306640625,-0.985260009765625,-0.0050506591796875,-0.156280517578125
1714412576333862700,4.752862548828125,-0.986907958984375,-0.0059356689453125,-0.1576690673828125
1714412576343936500,4.7629365234375,-0.987579345703125,-0.0062255859375,-0.157623291015625
1714412576354009300,4.77300927734375,-0.98712158203125,-0.0057525634765625,-0.158050537109375
1714412576364082400,4.78308251953125,-0.986572265625,-0.0064239501953125,-0.1584625244140625
1714412576374156500,4.793156494140625,-0.985748291015625,-0.006072998046875,-0.158447265625
1714412576384229400,4.8032294921875,-0.9867706298828125,-0.0048370361328125,-0.15765380859375
1714412576394302500,4.813302490234375,-0.9864654541015625,-0.00604248046875,-0.1566619873046875
1714412576404375600,4.82337548828125,-0.9857635498046875,-0.0060882568359375,-0.1576690673828125
1714412576414449400,4.833449462890625,-0.98583984375,-0.00665283203125,-0.15789794921875
1714412576424522500,4.8435224609375,-0.98480224609375,-0.0067291259765625,-0.1573333740234375
1714412576434595300,4.85359521484375,-0.986846923828125,-0.005645751953125,-0.1580963134765625
1714412576444668400,4.86366845703125,-0.9857330322265625,-0.0051422119140625,-0.1566314697265625
1714412576454742500,4.873742431640625,-0.9870452880859375,-0.0062103271484375,-0.1566619873046875
1714412576464815400,4.8838154296875,-0.9857940673828125,-0.00555419921875,-0.1573486328125
1714412576474888400,4.893888427734375,-0.9859619140625,-0.0047454833984375,-0.1572723388671875
1714412576484962600,4.903962646484375,-0.98541259765625,-0.00469970703125,-0.1572265625
1714412576495035400,4.914035400390625,-0.9877777099609375,-0.0061492919921875,-0.1576690673828125
1714412576505108500,4.9241083984375,-0.9875335693359375,-0.00579833984375,-0.1566314697265625
1714412576515181600,4.934181640625,-0.9860382080078125,-0.0069427490234375,-0.1578216552734375
1714412576525255400,4.94425537109375,-0.986785888671875,-0.0075225830078125,-0.1571502685546875
1714412576535328500,4.95432861328125,-0.9873504638671875,-0.005401611328125,-0.15618896484375
1714412576545401300,4.9644013671875,-0.9861907958984375,-0.0058441162109375,-0.1564483642578125
1714412576555475500,4.974475341796875,-0.98541259765625,-0.006927490234375,-0.1587677001953125
1714412576565548500,4.984548583984375,-0.986785888671875,-0.00634765625,-0.1584320068359375
1714412576575621400,4.994621337890625,-0.9866485595703125,-0.006805419921875,-0.1568603515625
1714412576585694500,5.004694580078125,-0.986480712890625,-0.007537841796875,-0.156646728515625
1714412576595768600,5.0147685546875,-0.98577880859375,-0.0055694580078125,-0.1581878662109375
1714412576605841400,5.02484130859375,-0.986083984375,-0.0066375732421875,-0.1585693359375
1714412576615914200,5.034914306640625,-0.98675537109375,-0.005218505859375,-0.1585845947265625
1714412576625987600,5.044987548828125,-0.9845123291015625,-0.0046234130859375,-0.1575164794921875
1714412576636061400,5.0550615234375,-0.9838714599609375,-0.00592041015625,-0.157012939453125
1714412576646134300,5.06513427734375,-0.9858245849609375,-0.0056610107421875,-0.1583251953125
1714412576656207400,5.075207275390625,-0.986541748046875,-0.00445556640625,-0.1580657958984375
1714412576666281500,5.085281494140625,-0.987548828125,-0.0048980712890625,-0.1577606201171875
1714412576676353800,5.095353759765625,-0.985809326171875,-0.0059051513671875,-0.15716552734375
1714412576686426600,5.105426513671875,-0.98516845703125,-0.005218505859375,-0.1577301025390625
1714412576696499700,5.115499755859375,-0.9868011474609375,-0.0053253173828125,-0.1594696044921875
1714412576706573800,5.12557373046875,-0.9870758056640625,-0.005645751953125,-0.1580810546875
1714412576716646700,5.135646728515625,-0.985382080078125,-0.00628662109375,-0.1585693359375
1714412576726719700,5.1457197265625,-0.9852142333984375,-0.006256103515625,-0.1573486328125
1714412576736792800,5.155792724609375,-0.9868927001953125,-0.0060272216796875,-0.1573944091796875
1714412576746866700,5.16586669921875,-0.9836883544921875,-0.006195068359375,-0.1564788818359375
1714412576756939800,5.175939697265625,-0.9864654541015625,-0.003692626953125,-0.1580810546875
1714412576767012600,5.1860126953125,-0.989471435546875,-0.0050811767578125,-0.156494140625
1714412576777086700,5.196086669921875,-0.9890289306640625,-0.0070343017578125,-0.157012939453125
1714412576787159800,5.206159912109375,-0.988616943359375,-0.005279541015625,-0.1578216552734375
1714412576797232600,5.216232666015625,-0.9875640869140625,-0.004547119140625,-0.158599853515625
1714412576807305500,5.226305419921875,-0.9831390380859375,-0.0072784423828125,-0.1589508056640625
1714412576817379800,5.2363798828125,-0.9843902587890625,-0.0061798095703125,-0.1569671630859375
1714412576827452700,5.24645263671875,-0.983306884765625,-0.0064697265625,-0.1564178466796875
1714412576837525500,5.256525390625,-0.985015869140625,-0.0067596435546875,-0.158172607421875
1714412576847598800,5.266598876953125,-0.9871673583984375,-0.008148193359375,-0.1564178466796875
1714412576857672700,5.276672607421875,-0.989349365234375,-0.0059051513671875,-0.155792236328125
1714412576867745500,5.28674560546875,-0.9880828857421875,-0.0070648193359375,-0.1561737060546875
1714412576877818600,5.296818603515625,-0.98486328125,-0.0055084228515625,-0.1561737060546875
1714412576887892700,5.306892822265625,-0.9854278564453125,-0.004486083984375,-0.155517578125
1714412576897965600,5.316965576171875,-0.9872894287109375,-0.00494384765625,-0.1566925048828125
1714412576908038700,5.32703857421875,-0.984405517578125,-0.004180908203125,-0.159454345703125
1714412576918111700,5.33711181640625,-0.9865264892578125,-0.0033416748046875,-0.1572418212890625
1714412576928185600,5.347185546875,-0.9852447509765625,-0.005706787109375,-0.158111572265625
1714412576938258700,5.3572587890625,-0.9864349365234375,-0.007080078125,-0.1568145751953125
1714412576948331500,5.36733154296875,-0.9868011474609375,-0.00445556640625,-0.1596832275390625
1714412576958404900,5.37740478515625,-0.9867095947265625,-0.00482177734375,-0.1568603515625
1714412576968478700,5.387478759765625,-0.986358642578125,-0.0067138671875,-0.157623291015625
1714412576978551600,5.397551513671875,-0.9862060546875,-0.0046539306640625,-0.155914306640625
1714412576988624600,5.407624755859375,-0.9848175048828125,-0.0038909912109375,-0.1563568115234375
1714412576998698800,5.41769873046875,-0.985809326171875,-0.006317138671875,-0.1577606201171875
1714412577008771600,5.427771484375,-0.9854278564453125,-0.0059814453125,-0.1570892333984375
1714412577018844700,5.4378447265625,-0.9863433837890625,-0.0054931640625,-0.15911865234375
1714412577028917800,5.447917724609375,-0.9856719970703125,-0.0065460205078125,-0.1575775146484375
1714412577038991600,5.45799169921875,-0.9855194091796875,-0.005889892578125,-0.1573486328125
1714412577049064700,5.468064697265625,-0.987335205078125,-0.006439208984375,-0.158416748046875
1714412577059137500,5.478137451171875,-0.98602294921875,-0.0073394775390625,-0.156494140625
1714412577069211600,5.488211669921875,-0.9864501953125,-0.007080078125,-0.15728759765625
1714412577079284700,5.49828466796875,-0.9873504638671875,-0.0060577392578125,-0.1572265625
1714412577089357600,5.508357666015625,-0.9865570068359375,-0.0054779052734375,-0.1577301025390625
1714412577099431000,5.518430908203125,-0.98419189453125,-0.005889892578125,-0.159210205078125
1714412577109504800,5.5285048828125,-0.9856719970703125,-0.005279541015625,-0.15911865234375
1714412577119577600,5.53857763671875,-0.9845733642578125,-0.0052337646484375,-0.157562255859375
1714412577129650700,5.548650634765625,-0.9866943359375,-0.0062713623046875,-0.1584320068359375
1714412577139723800,5.558723876953125,-0.9892120361328125,-0.005218505859375,-0.157806396484375
1714412577149797600,5.568797607421875,-0.9877777099609375,-0.00732421875,-0.1589813232421875
1714412577159870700,5.57887060546875,-0.986175537109375,-0.0068359375,-0.1589813232421875
1714412577169943600,5.588943603515625,-0.9847259521484375,-0.0057373046875,-0.1590423583984375
1714412577180016600,5.5990166015625,-0.987030029296875,-0.006072998046875,-0.1580963134765625
1714412577190090800,5.6090908203125,-0.9870758056640625,-0.0055694580078125,-0.15936279296875
1714412577200163600,5.61916357421875,-0.9879302978515625,-0.0062103271484375,-0.161407470703125
1714412577210236700,5.629236572265625,-0.987884521484375,-0.00640869140625,-0.1588287353515625
1714412577220310800,5.639310791015625,-0.98675537109375,-0.0038604736328125,-0.1589202880859375
1714412577230383600,5.649383544921875,-0.9866180419921875,-0.005401611328125,-0.1581878662109375
1714412577240456700,5.659456787109375,-0.9857940673828125,-0.0051727294921875,-0.1563568115234375
1714412577250529800,5.66952978515625,-0.985260009765625,-0.0051727294921875,-0.1567535400390625
1714412577260603600,5.679603759765625,-0.986541748046875,-0.007080078125,-0.157958984375
1714412577270676700,5.6896767578125,-0.98590087890625,-0.0056610107421875,-0.1564178466796875
1714412577280749800,5.699749755859375,-0.986083984375,-0.0074005126953125,-0.1562347412109375
1714412577290823700,5.70982373046875,-0.9862518310546875,-0.0059661865234375,-0.1585693359375
1714412577300896800,5.719896728515625,-0.98602294921875,-0.005950927734375,-0.1565399169921875
1714412577310969600,5.729969482421875,-0.9878997802734375,-0.004852294921875,-0.1589813232421875
1714412577321042700,5.740042724609375,-0.985992431640625,-0.0063934326171875,-0.1594390869140625
1714412577331116800,5.75011669921875,-0.9865570068359375,-0.0039825439453125,-0.1575775146484375
1714412577341189600,5.760189697265625,-0.985931396484375,-0.006317138671875,-0.158660888671875
1714412577351262500,5.770262451171875,-0.9865264892578125,-0.005889892578125,-0.159393310546875
1714412577361335800,5.780335693359375,-0.98614501953125,-0.0072174072265625,-0.15850830078125
1714412577371409700,5.79040966796875,-0.986846923828125,-0.004791259765625,-0.1565704345703125
1714412577381482500,5.800482421875,-0.9851837158203125,-0.0059814453125,-0.157470703125
1714412577391555800,5.810555908203125,-0.9859771728515625,-0.0067596435546875,-0.156890869140625
1714412577401629700,5.820629638671875,-0.9851226806640625,-0.0069427490234375,-0.158660888671875
1714412577411702500,5.83070263671875,-0.9853363037109375,-0.0066680908203125,-0.1583099365234375
1714412577421775600,5.840775634765625,-0.9851226806640625,-0.0052032470703125,-0.1571807861328125
1714412577431848700,5.8508486328125,-0.9853973388671875,-0.0044097900390625,-0.1576995849609375
1714412577441922600,5.860922607421875,-0.98638916015625,-0.004913330078125,-0.1579132080078125
1714412577451995600,5.87099560546875,-0.9863433837890625,-0.005645751953125,-0.1585845947265625
1714412577462068700,5.88106884765625,-0.9876556396484375,-0.0052490234375,-0.15765380859375
1714412577472141800,5.891141845703125,-0.9875946044921875,-0.005706787109375,-0.1578369140625
1714412577482215700,5.901215576171875,-0.9862060546875,-0.005859375,-0.157867431640625
1714412577492288500,5.91128857421875,-0.985107421875,-0.00750732421875,-0.1572723388671875
1714412577502361900,5.92136181640625,-0.9866790771484375,-0.0066375732421875,-0.158203125
1714412577512434700,5.9314345703125,-0.9861297607421875,-0.005706787109375,-0.1554718017578125
1714412577522508500,5.941508544921875,-0.9848480224609375,-0.005950927734375,-0.156646728515625
1714412577532582000,5.951581787109375,-0.9866790771484375,-0.004425048828125,-0.1581573486328125
1714412577542654700,5.96165478515625,-0.987640380859375,-0.0061492919921875,-0.1574859619140625
1714412577552728600,5.971728515625,-0.986053466796875,-0.0057220458984375,-0.1581268310546875
1714412577562801700,5.9818017578125,-0.9857177734375,-0.0062408447265625,-0.158843994140625
1714412577572874800,5.991874755859375,-0.9854278564453125,-0.004425048828125,-0.1578521728515625
1714412577582947800,6.00194775390625,-0.986907958984375,-0.00665283203125,-0.1571044921875
1714412577593021700,6.012021728515625,-0.9874114990234375,-0.0057830810546875,-0.1571502685546875
1714412577603094500,6.022094482421875,-0.9866790771484375,-0.0042724609375,-0.158111572265625
1714412577613167900,6.03216796875,-0.98626708984375,-0.006744384765625,-0.1578216552734375
1714412577623241700,6.04224169921875,-0.986663818359375,-0.005340576171875,-0.157257080078125
1714412577633314600,6.052314453125,-0.9861602783203125,-0.0057220458984375,-0.1582794189453125
1714412577643388000,6.062387939453125,-0.986328125,-0.005706787109375,-0.1580963134765625
1714412577653460700,6.072460693359375,-0.985321044921875,-0.0069580078125,-0.1569976806640625
1714412577663534600,6.08253466796875,-0.986572265625,-0.005859375,-0.15631103515625
1714412577673608000,6.09260791015625,-0.9863433837890625,-0.0051727294921875,-0.1570587158203125
1714412577683680800,6.1026806640625,-0.9867401123046875,-0.0059051513671875,-0.1587371826171875
1714412577693753600,6.112753662109375,-0.9863739013671875,-0.00579833984375,-0.1590118408203125
1714412577703827700,6.12282763671875,-0.9850006103515625,-0.0060577392578125,-0.1581268310546875
1714412577713900800,6.13290087890625,-0.9860382080078125,-0.0057373046875,-0.15789794921875
1714412577723973600,6.1429736328125,-0.986846923828125,-0.006195068359375,-0.1586456298828125
1714412577734046700,6.153046630859375,-0.9864501953125,-0.005859375,-0.159027099609375
1714412577744120800,6.163120849609375,-0.985626220703125,-0.0069122314453125,-0.157470703125
1714412577754193700,6.173193603515625,-0.9851226806640625,-0.0068817138671875,-0.156402587890625
1714412577764266800,6.183266845703125,-0.9854736328125,-0.00543212890625,-0.1580657958984375
1714412577774340600,6.193340576171875,-0.98638916015625,-0.00762939453125,-0.156890869140625
1714412577784413700,6.20341357421875,-0.98675537109375,-0.0076446533203125,-0.1595306396484375
1714412577794486800,6.21348681640625,-0.9873199462890625,-0.00689697265625,-0.15771484375
1714412577804559600,6.2235595703125,-0.984161376953125,-0.0045166015625,-0.1578216552734375
1714412577814633700,6.2336337890625,-0.9828948974609375,-0.004486083984375,-0.1573028564453125
1714412577824706800,6.243706787109375,-0.98681640625,-0.005218505859375,-0.158233642578125
1714412577834779600,6.253779541015625,-0.9884033203125,-0.00830078125,-0.1577911376953125
1714412577844852700,6.263852783203125,-0.98907470703125,-0.0069732666015625,-0.1587066650390625
1714412577854926800,6.2739267578125,-0.987518310546875,-0.0054168701171875,-0.1586761474609375
1714412577864999700,6.283999755859375,-0.9842987060546875,-0.00628662109375,-0.158599853515625
1714412577875072800,6.29407275390625,-0.98529052734375,-0.007232666015625,-0.158935546875
1714412577885146600,6.304146728515625,-0.984039306640625,-0.005279541015625,-0.1583099365234375
1714412577895219700,6.3142197265625,-0.9849700927734375,-0.0069732666015625,-0.158843994140625
1714412577905292800,6.324292724609375,-0.9870147705078125,-0.007537841796875,-0.1571502685546875
1714412577915365600,6.33436572265625,-0.9893341064453125,-0.0062103271484375,-0.1566314697265625
1714412577925439700,6.344439697265625,-0.9881744384765625,-0.0062255859375,-0.156646728515625
1714412577935512800,6.354512939453125,-0.9848785400390625,-0.0063629150390625,-0.1554412841796875
1714412577945585700,6.364585693359375,-0.9858245849609375,-0.0046844482421875,-0.1587677001953125
1714412577955658800,6.37465869140625,-0.98681640625,-0.0034332275390625,-0.158538818359375
1714412577965732900,6.38473291015625,-0.9851226806640625,-0.005157470703125,-0.15869140625
1714412577975805700,6.3948056640625,-0.9851226806640625,-0.0054473876953125,-0.157562255859375
1714412577985878800,6.404878662109375,-0.98492431640625,-0.0048980712890625,-0.16015625
1714412577995953000,6.414952880859375,-0.984375,-0.0059814453125,-0.15869140625
1714412578006025700,6.425025634765625,-0.986328125,-0.005035400390625,-0.1584930419921875
1714412578016098800,6.435098876953125,-0.98614501953125,-0.0048370361328125,-0.158416748046875
1714412578026171600,6.445171630859375,-0.9866943359375,-0.0071258544921875,-0.1575927734375
1714412578036245800,6.455245849609375,-0.9856414794921875,-0.0048370361328125,-0.1556854248046875
1714412578046318800,6.46531884765625,-0.9880218505859375,-0.0056915283203125,-0.15765380859375
1714412578056391700,6.4753916015625,-0.9857635498046875,-0.006744384765625,-0.1572113037109375
1714412578066464800,6.48546484375,-0.9858245849609375,-0.0070953369140625,-0.1574249267578125
1714412578076539000,6.495538818359375,-0.9870147705078125,-0.0062713623046875,-0.1570281982421875
1714412578086611700,6.50561181640625,-0.9868316650390625,-0.0058135986328125,-0.157989501953125
1714412578096684800,6.515684814453125,-0.9859771728515625,-0.0054779052734375,-0.159210205078125
1714412578106759000,6.525759033203125,-0.9856414794921875,-0.0054931640625,-0.158966064453125
1714412578116831700,6.535831787109375,-0.9864044189453125,-0.007110595703125,-0.1591339111328125
1714412578126904800,6.54590478515625,-0.9876708984375,-0.0059661865234375,-0.1556549072265625
1714412578136977700,6.555977783203125,-0.9875030517578125,-0.005706787109375,-0.1575775146484375
1714412578147051800,6.5660517578125,-0.9879150390625,-0.0064849853515625,-0.1573486328125
1714412578157124900,6.576124755859375,-0.9847259521484375,-0.00665283203125,-0.15704345703125
1714412578167197700,6.58619775390625,-0.9845428466796875,-0.0032806396484375,-0.1566925048828125
1714412578177270500,6.5962705078125,-0.9847259521484375,-0.00482177734375,-0.1593170166015625
1714412578187345000,6.606344970703125,-0.9859466552734375,-0.0050048828125,-0.1584014892578125
1714412578197417700,6.616417724609375,-0.986419677734375,-0.00628662109375,-0.159454345703125
1714412578207490600,6.626490478515625,-0.9875335693359375,-0.0078125,-0.157470703125
1714412578217563600,6.636563720703125,-0.985992431640625,-0.0066986083984375,-0.1563262939453125
1714412578227637800,6.6466376953125,-0.9835968017578125,-0.005523681640625,-0.158203125
1714412578237710600,6.656710693359375,-0.9870758056640625,-0.005096435546875,-0.1577911376953125
1714412578247783700,6.66678369140625,-0.9860076904296875,-0.0056915283203125,-0.1592254638671875
1714412578257857800,6.67685791015625,-0.9875640869140625,-0.0055999755859375,-0.1587982177734375
1714412578267930600,6.6869306640625,-0.989105224609375,-0.0054473876953125,-0.158966064453125
1714412578278003700,6.697003662109375,-0.985687255859375,-0.005401611328125,-0.1603851318359375
1714412578288076500,6.70707666015625,-0.985137939453125,-0.005828857421875,-0.158843994140625
1714412578298150700,6.717150634765625,-0.986297607421875,-0.005706787109375,-0.1568756103515625
1714412578308223700,6.7272236328125,-0.986328125,-0.00579833984375,-0.156341552734375
1714412578318296600,6.737296630859375,-0.986541748046875,-0.00494384765625,-0.158660888671875
1714412578328369700,6.74736962890625,-0.9861297607421875,-0.0060577392578125,-0.15618896484375
1714412578338443800,6.75744384765625,-0.9872894287109375,-0.0070953369140625,-0.15728759765625
1714412578348516600,6.7675166015625,-0.987335205078125,-0.00634765625,-0.15826416015625
1714412578358589700,6.777589599609375,-0.987884521484375,-0.00714111328125,-0.1583404541015625
1714412578368663800,6.787663818359375,-0.9867095947265625,-0.0053863525390625,-0.1565093994140625
1714412578378736600,6.797736572265625,-0.98565673828125,-0.005035400390625,-0.1572418212890625
1714412578388809700,6.807809814453125,-0.9861907958984375,-0.005523681640625,-0.1581878662109375
1714412578398882600,6.817882568359375,-0.987213134765625,-0.0058746337890625,-0.157135009765625
1714412578408956700,6.827956787109375,-0.987091064453125,-0.00567626953125,-0.1579742431640625
1714412578419029800,6.83802978515625,-0.986358642578125,-0.00616455078125,-0.1591796875
1714412578429102600,6.8481025390625,-0.9859771728515625,-0.00726318359375,-0.15753173828125
1714412578439176000,6.858176025390625,-0.9864654541015625,-0.006439208984375,-0.15704345703125
1714412578449249800,6.868249755859375,-0.9855804443359375,-0.0079803466796875,-0.1580810546875
1714412578459322600,6.878322509765625,-0.9851837158203125,-0.006195068359375,-0.1579437255859375
1714412578469395700,6.888395751953125,-0.9860382080078125,-0.00567626953125,-0.1566009521484375
1714412578479468800,6.89846875,-0.985687255859375,-0.0046844482421875,-0.156402587890625
1714412578489542700,6.908542724609375,-0.9871368408203125,-0.0048370361328125,-0.157501220703125
1714412578499615700,6.91861572265625,-0.984832763671875,-0.0062103271484375,-0.1588592529296875
1714412578509688600,6.9286884765625,-0.9849090576171875,-0.0063629150390625,-0.1586456298828125
1714412578519762700,6.9387626953125,-0.9862060546875,-0.0070037841796875,-0.15869140625
1714412578529835800,6.948835693359375,-0.986541748046875,-0.0062408447265625,-0.158782958984375
1714412578539908600,6.95890869140625,-0.9852294921875,-0.005828857421875,-0.157196044921875
1714412578549982000,6.96898193359375,-0.9864349365234375,-0.00677490234375,-0.1576690673828125
1714412578560055800,6.979055908203125,-0.9878692626953125,-0.005645751953125,-0.1573486328125
1714412578570128600,6.989128662109375,-0.9864654541015625,-0.0064849853515625,-0.1587066650390625
1714412578580201700,6.99920166015625,-0.984649658203125,-0.0063018798828125,-0.1583709716796875
1714412578590274800,7.00927490234375,-0.985687255859375,-0.0055999755859375,-0.1572418212890625
1714412578600348700,7.0193486328125,-0.9846954345703125,-0.0045318603515625,-0.158294677734375
1714412578610421800,7.029421875,-0.98565673828125,-0.0062408447265625,-0.15728759765625
1714412578620494800,7.039494873046875,-0.9851837158203125,-0.0064544677734375,-0.15826416015625
1714412578630567700,7.049567626953125,-0.9856109619140625,-0.004974365234375,-0.1569061279296875
1714412578640641800,7.059641845703125,-0.9859771728515625,-0.00579833984375,-0.1580047607421875
1714412578650714600,7.069714599609375,-0.9869842529296875,-0.0059051513671875,-0.1576995849609375
1714412578660787700,7.07978759765625,-0.987060546875,-0.0073394775390625,-0.15716552734375
1714412578670861800,7.08986181640625,-0.986083984375,-0.0070037841796875,-0.1576080322265625
1714412578680934700,7.0999345703125,-0.9851837158203125,-0.0047454833984375,-0.15704345703125
1714412578691007500,7.110007568359375,-0.9859619140625,-0.0058135986328125,-0.1575927734375
1714412578701080600,7.12008056640625,-0.9857177734375,-0.0052642822265625,-0.15789794921875
1714412578711154700,7.13015478515625,-0.9857177734375,-0.00518798828125,-0.158935546875
1714412578721227500,7.1402275390625,-0.9862213134765625,-0.0048828125,-0.1581268310546875
1714412578731300600,7.150300537109375,-0.987396240234375,-0.0065460205078125,-0.1575927734375
1714412578741373400,7.16037353515625,-0.987213134765625,-0.00628662109375,-0.160186767578125
1714412578751447600,7.170447509765625,-0.98529052734375,-0.0056610107421875,-0.15911865234375
1714412578761520600,7.180520751953125,-0.9857330322265625,-0.0065765380859375,-0.1594390869140625
1714412578771593500,7.190593505859375,-0.98602294921875,-0.0056915283203125,-0.1588592529296875
1714412578781667600,7.20066748046875,-0.9873504638671875,-0.0053558349609375,-0.1580352783203125
1714412578791740700,7.21074072265625,-0.9861297607421875,-0.0056610107421875,-0.1591796875
1714412578801813500,7.2208134765625,-0.9864349365234375,-0.0058746337890625,-0.1583709716796875
1714412578811886600,7.230886474609375,-0.98590087890625,-0.0053863525390625,-0.1590576171875
1714412578821960700,7.240960693359375,-0.98614501953125,-0.0057220458984375,-0.1592254638671875
1714412578832033500,7.251033447265625,-0.9866943359375,-0.006927490234375,-0.157867431640625
1714412578842106600,7.261106689453125,-0.9857940673828125,-0.00634765625,-0.15838623046875
1714412578852179500,7.271179443359375,-0.985626220703125,-0.005706787109375,-0.1572723388671875
1714412578862253600,7.281253662109375,-0.98468017578125,-0.004974365234375,-0.158721923828125
1714412578872326700,7.29132666015625,-0.986236572265625,-0.00555419921875,-0.1600189208984375
1714412578882399500,7.3013994140625,-0.9864959716796875,-0.0067291259765625,-0.1575469970703125
1714412578892472600,7.31147265625,-0.98345947265625,-0.0063018798828125,-0.1572418212890625
1714412578902546700,7.321546630859375,-0.986175537109375,-0.0044403076171875,-0.1572418212890625
1714412578912619500,7.33161962890625,-0.9898681640625,-0.0060882568359375,-0.1561126708984375
1714412578922692600,7.341692626953125,-0.987579345703125,-0.00653076171875,-0.157135009765625
1714412578932766700,7.3517666015625,-0.9869537353515625,-0.004241943359375,-0.15875244140625
1714412578942839600,7.361839599609375,-0.98492431640625,-0.0051422119140625,-0.1588134765625
1714412578952912600,7.37191259765625,-0.982940673828125,-0.0061492919921875,-0.161163330078125
1714412578962985500,7.3819853515625,-0.9851531982421875,-0.006805419921875,-0.1597137451171875
1714412578973059600,7.3920595703125,-0.9855499267578125,-0.00567626953125,-0.1590118408203125
1714412578983132700,7.402132568359375,-0.98565673828125,-0.0056304931640625,-0.1587677001953125
1714412578993205500,7.41220556640625,-0.987030029296875,-0.007659912109375,-0.1591796875
1714412579003278600,7.422278564453125,-0.988067626953125,-0.0065460205078125,-0.1566314697265625
1714412579013352700,7.432352783203125,-0.986572265625,-0.0054168701171875,-0.155609130859375
1714412579023425500,7.442425537109375,-0.983978271484375,-0.0054473876953125,-0.1591339111328125
1714412579033498600,7.45249853515625,-0.986572265625,-0.0053558349609375,-0.1588287353515625
1714412579043572700,7.46257275390625,-0.985504150390625,-0.0047149658203125,-0.1590423583984375
1714412579053645600,7.4726455078125,-0.9840545654296875,-0.0058441162109375,-0.158477783203125
1714412579063718700,7.48271875,-0.9842681884765625,-0.0030059814453125,-0.158782958984375
1714412579073791500,7.49279150390625,-0.9853515625,-0.0036468505859375,-0.15863037109375
1714412579083865600,7.502865478515625,-0.9853973388671875,-0.0052947998046875,-0.1584625244140625
1714412579093938700,7.512938720703125,-0.9847869873046875,-0.0043182373046875,-0.1576080322265625
1714412579104011500,7.523011474609375,-0.9866790771484375,-0.0045318603515625,-0.157012939453125
1714412579114084600,7.533084716796875,-0.9858551025390625,-0.0059356689453125,-0.15777587890625
1714412579124158700,7.54315869140625,-0.98602294921875,-0.007354736328125,-0.1568145751953125
1714412579134231600,7.5532314453125,-0.985137939453125,-0.005462646484375,-0.15899658203125
1714412579144304600,7.5633046875,-0.9854583740234375,-0.0044708251953125,-0.159820556640625
1714412579154377700,7.573377685546875,-0.98626708984375,-0.0061492919921875,-0.157623291015625
1714412579164451600,7.58345166015625,-0.9864654541015625,-0.0060577392578125,-0.156951904296875
1714412579174524700,7.593524658203125,-0.986785888671875,-0.007110595703125,-0.1583251953125
1714412579184597500,7.603597412109375,-0.9842071533203125,-0.0056610107421875,-0.157806396484375
1714412579194671600,7.613671630859375,-0.985595703125,-0.007171630859375,-0.1578369140625
1714412579204744700,7.62374462890625,-0.986724853515625,-0.006683349609375,-0.1581268310546875
1714412579214817500,7.633817626953125,-0.986663818359375,-0.0053253173828125,-0.157745361328125
1714412579224890600,7.643890625,-0.9861907958984375,-0.0045318603515625,-0.1586456298828125
1714412579234964700,7.65396484375,-0.98529052734375,-0.005523681640625,-0.1578216552734375
1714412579245037600,7.66403759765625,-0.986358642578125,-0.006072998046875,-0.15911865234375
1714412579255110400,7.6741103515625,-0.9849853515625,-0.0048675537109375,-0.1593780517578125
1714412579265183700,7.684183837890625,-0.9857025146484375,-0.0050201416015625,-0.157958984375
1714412579275257600,7.694257568359375,-0.9879913330078125,-0.006561279296875,-0.1596832275390625
1714412579285330400,7.704330322265625,-0.9873199462890625,-0.0053558349609375,-0.158111572265625
1714412579295403800,7.71440380859375,-0.9865264892578125,-0.0059814453125,-0.15570068359375
1714412579305476600,7.7244765625,-0.985137939453125,-0.0079345703125,-0.1572723388671875
1714412579315550500,7.734550537109375,-0.9853057861328125,-0.0078582763671875,-0.159271240234375
1714412579325623600,7.74462353515625,-0.9845123291015625,-0.0060577392578125,-0.1587371826171875
1714412579335696600,7.754696533203125,-0.9869537353515625,-0.0056610107421875,-0.1588592529296875
1714412579345770500,7.7647705078125,-0.9857940673828125,-0.006317138671875,-0.1597747802734375
1714412579355843600,7.774843505859375,-0.9875030517578125,-0.005889892578125,-0.1591644287109375
1714412579365916400,7.78491650390625,-0.98626708984375,-0.004302978515625,-0.160430908203125
1714412579375989800,7.79498974609375,-0.985565185546875,-0.004669189453125,-0.158355712890625
1714412579386063600,7.805063720703125,-0.9868316650390625,-0.00567626953125,-0.156463623046875
1714412579396136400,7.815136474609375,-0.987152099609375,-0.006591796875,-0.1563262939453125
1714412579406209800,7.825209716796875,-0.9848175048828125,-0.0056915283203125,-0.1573944091796875
1714412579416282600,7.83528271484375,-0.9853973388671875,-0.0054168701171875,-0.1571197509765625
1714412579426356500,7.8453564453125,-0.9864959716796875,-0.0045013427734375,-0.1562347412109375
1714412579436429600,7.8554296875,-0.9866485595703125,-0.005767822265625,-0.1561431884765625
1714412579446502700,7.865502685546875,-0.987335205078125,-0.0067596435546875,-0.1565704345703125
1714412579456575700,7.87557568359375,-0.986358642578125,-0.004486083984375,-0.15802001953125
1714412579466649600,7.885649658203125,-0.9849395751953125,-0.006378173828125,-0.1574859619140625
1714412579476722700,7.89572265625,-0.9863739013671875,-0.0068511962890625,-0.15875244140625
1714412579486795800,7.905795654296875,-0.985870361328125,-0.0064849853515625,-0.1586761474609375
1714412579496868600,7.91586865234375,-0.98626708984375,-0.0054931640625,-0.159210205078125
1714412579506942500,7.9259423828125,-0.9843902587890625,-0.0073394775390625,-0.157989501953125
1714412579517015800,7.936015869140625,-0.9849700927734375,-0.007080078125,-0.1587677001953125
1714412579527088600,7.946088623046875,-0.9865875244140625,-0.00750732421875,-0.15679931640625
1714412579537162500,7.95616259765625,-0.9853057861328125,-0.00604248046875,-0.1569671630859375
1714412579547235600,7.966235595703125,-0.984893798828125,-0.00592041015625,-0.1587371826171875
1714412579557308700,7.97630859375,-0.9854888916015625,-0.0057525634765625,-0.1578369140625
1714412579567381500,7.986381591796875,-0.98675537109375,-0.00445556640625,-0.1571807861328125
1714412579577455600,7.99645556640625,-0.9863739013671875,-0.0048065185546875,-0.1568603515625
1714412579587528700,8.00652880859375,-0.98699951171875,-0.0047760009765625,-0.1571502685546875
1714412579597601500,8.0166015625,-0.986968994140625,-0.005126953125,-0.156280517578125
1714412579607674600,8.026674560546875,-0.9861602783203125,-0.004547119140625,-0.1584625244140625
1714412579617748500,8.03674853515625,-0.98614501953125,-0.00494384765625,-0.1569976806640625
1714412579627821600,8.046821533203126,-0.9861297607421875,-0.00555419921875,-0.1582183837890625
1714412579637894700,8.056894775390624,-0.9852142333984375,-0.00445556640625,-0.157318115234375
1714412579647967500,8.066967529296875,-0.985687255859375,-0.0051727294921875,-0.157989501953125
1714412579658041600,8.07704150390625,-0.9856414794921875,-0.00628662109375,-0.15667724609375
1714412579668114700,8.08711474609375,-0.9859161376953125,-0.00555419921875,-0.156768798828125
1714412579678187500,8.0971875,-0.9865570068359375,-0.0059051513671875,-0.158905029296875
1714412579688261600,8.10726171875,-0.985565185546875,-0.006439208984375,-0.15631103515625
1714412579698334700,8.117334716796876,-0.985809326171875,-0.0046844482421875,-0.157501220703125
1714412579708407600,8.127407470703124,-0.985321044921875,-0.006317138671875,-0.1585540771484375
1714412579718480600,8.137480712890625,-0.98626708984375,-0.0052947998046875,-0.157440185546875
1714412579728554800,8.1475546875,-0.9871673583984375,-0.0049285888671875,-0.1577911376953125
1714412579738627600,8.157627685546874,-0.9852294921875,-0.005615234375,-0.15911865234375
1714412579748700700,8.16770068359375,-0.9849700927734375,-0.0072174072265625,-0.1570587158203125
1714412579758773800,8.177773681640625,-0.9868011474609375,-0.0066375732421875,-0.1575775146484375
1714412579768847600,8.18784765625,-0.987274169921875,-0.0057525634765625,-0.158233642578125
1714412579778920700,8.197920654296874,-0.9862518310546875,-0.006072998046875,-0.1573028564453125
1714412579788993500,8.20799365234375,-0.986114501953125,-0.0055389404296875,-0.1586456298828125
1714412579799067000,8.21806689453125,-0.9870758056640625,-0.0067291259765625,-0.156768798828125
1714412579809140700,8.228140625,-0.9885101318359375,-0.0062408447265625,-0.1558380126953125
1714412579819213600,8.238213623046875,-0.9865570068359375,-0.0054473876953125,-0.1582794189453125
1714412579829286700,8.24828662109375,-0.9861907958984375,-0.0055999755859375,-0.1566314697265625
1714412579839360800,8.25836083984375,-0.98638916015625,-0.00543212890625,-0.157196044921875
1714412579849433600,8.26843359375,-0.98736572265625,-0.0048370361328125,-0.1589202880859375
1714412579859506700,8.278506591796875,-0.9850616455078125,-0.0070648193359375,-0.15936279296875
1714412579869579800,8.288579833984375,-0.985260009765625,-0.006439208984375,-0.1585845947265625
1714412579879653600,8.298653564453126,-0.9853515625,-0.005859375,-0.1576995849609375
1714412579889726700,8.308726806640625,-0.982421875,-0.00445556640625,-0.1554412841796875
1714412579899799600,8.318799560546875,-0.9853057861328125,-0.00408935546875,-0.158203125
1714412579909873000,8.328872802734375,-0.9886474609375,-0.0050811767578125,-0.1561126708984375
1714412579919946800,8.33894677734375,-0.989013671875,-0.007568359375,-0.156982421875
1714412579930019600,8.34901953125,-0.987701416015625,-0.0056304931640625,-0.1575469970703125
1714412579940093000,8.359093017578125,-0.9858551025390625,-0.0045928955078125,-0.1576690673828125
1714412579950165800,8.369165771484376,-0.9826202392578125,-0.0064849853515625,-0.157989501953125
1714412579960239600,8.379239501953125,-0.9841156005859375,-0.0064544677734375,-0.1585693359375
1714412579970312700,8.389312744140625,-0.9845733642578125,-0.0055084228515625,-0.1591644287109375
1714412579980385800,8.3993857421875,-0.9840545654296875,-0.0054473876953125,-0.1573028564453125
1714412579990459600,8.409459716796874,-0.9858856201171875,-0.006378173828125,-0.1576385498046875
1714412580000532700,8.41953271484375,-0.988128662109375,-0.0062408447265625,-0.1571044921875
1714412580010605600,8.42960546875,-0.987945556640625,-0.0048675537109375,-0.155914306640625
1714412580020678700,8.4396787109375,-0.9860076904296875,-0.0074920654296875,-0.1560516357421875
1714412580030752800,8.449752685546875,-0.9856719970703125,-0.0063323974609375,-0.1573638916015625
1714412580040825600,8.45982568359375,-0.9865875244140625,-0.004791259765625,-0.1572265625
1714412580050898700,8.469898681640625,-0.9849700927734375,-0.00457763671875,-0.159088134765625
1714412580060971800,8.4799716796875,-0.985687255859375,-0.00439453125,-0.159088134765625
1714412580071045600,8.490045654296875,-0.9856109619140625,-0.0046539306640625,-0.158050537109375
1714412580081118500,8.500118408203125,-0.9854583740234375,-0.0044708251953125,-0.1567535400390625
1714412580091191800,8.51019189453125,-0.9853515625,-0.0061187744140625,-0.1577606201171875
1714412580101264600,8.5202646484375,-0.987152099609375,-0.0040130615234375,-0.1558990478515625
1714412580111338500,8.53033837890625,-0.987640380859375,-0.00555419921875,-0.1560821533203125
1714412580121411800,8.540411865234375,-0.985687255859375,-0.0049285888671875,-0.156982421875
1714412580131484700,8.550484619140626,-0.9851226806640625,-0.0047149658203125,-0.1569976806640625
1714412580141557800,8.560557861328125,-0.98480224609375,-0.0048065185546875,-0.1582489013671875
1714412580151631600,8.570631591796875,-0.9848785400390625,-0.00531005859375,-0.158935546875
1714412580161704700,8.58070458984375,-0.986175537109375,-0.0060882568359375,-0.157958984375
1714412580171777800,8.59077783203125,-0.9863739013671875,-0.0066375732421875,-0.15643310546875
1714412580181851600,8.6008515625,-0.987396240234375,-0.0053253173828125,-0.15863037109375
1714412580191924500,8.610924560546875,-0.985626220703125,-0.004974365234375,-0.1588592529296875
1714412580201997800,8.620997802734376,-0.9871978759765625,-0.0061492919921875,-0.157073974609375
1714412580212070700,8.631070556640625,-0.9868927001953125,-0.006256103515625,-0.1571807861328125
1714412580222144500,8.64114453125,-0.9859771728515625,-0.0052947998046875,-0.1573486328125
1714412580232217900,8.6512177734375,-0.985504150390625,-0.005859375,-0.1581573486328125
1714412580242290700,8.661290771484374,-0.98480224609375,-0.0050506591796875,-0.1589508056640625
1714412580252363800,8.67136376953125,-0.9849090576171875,-0.0039825439453125,-0.1589813232421875
1714412580262437600,8.681437744140625,-0.9847869873046875,-0.006683349609375,-0.15869140625
1714412580272510700,8.6915107421875,-0.9869842529296875,-0.0062103271484375,-0.15728759765625
1714412580282583800,8.701583740234375,-0.987518310546875,-0.0066375732421875,-0.1569976806640625
1714412580292656600,8.71165673828125,-0.9868927001953125,-0.006195068359375,-0.15740966796875
1714412580302730800,8.721730712890626,-0.9851531982421875,-0.0064697265625,-0.1554412841796875
1714412580312803800,8.731803955078124,-0.9829864501953125,-0.00543212890625,-0.158843994140625
1714412580322876700,8.741876708984375,-0.985565185546875,-0.0047454833984375,-0.159088134765625
1714412580332949800,8.75194970703125,-0.987091064453125,-0.00640869140625,-0.1580963134765625
1714412580343023900,8.76202392578125,-0.9889373779296875,-0.0055999755859375,-0.1606292724609375
1714412580353096700,8.7720966796875,-0.987579345703125,-0.0042877197265625,-0.158233642578125
1714412580363169800,8.782169677734375,-0.9855499267578125,-0.00457763671875,-0.1585235595703125
1714412580373243600,8.79224365234375,-0.986175537109375,-0.0048828125,-0.1593170166015625
1714412580383316700,8.802316650390624,-0.985015869140625,-0.00469970703125,-0.1585540771484375
1714412580393389800,8.812389892578125,-0.983734130859375,-0.0064544677734375,-0.1565093994140625
1714412580403462700,8.822462646484375,-0.9865570068359375,-0.0063934326171875,-0.1570892333984375
1714412580413536800,8.832536865234376,-0.9876861572265625,-0.0059051513671875,-0.155792236328125
1714412580423609900,8.84260986328125,-0.9871978759765625,-0.005096435546875,-0.1562347412109375
1714412580433682700,8.8526826171875,-0.986663818359375,-0.0061798095703125,-0.155426025390625
1714412580443755500,8.862755615234375,-0.987213134765625,-0.0047607421875,-0.1580047607421875
1714412580453830000,8.872829833984374,-0.9879608154296875,-0.005767822265625,-0.1577911376953125
1714412580463902700,8.88290283203125,-0.985382080078125,-0.0078277587890625,-0.15869140625
1714412580473975600,8.8929755859375,-0.98626708984375,-0.0057830810546875,-0.158782958984375
1714412580484048600,8.903048583984376,-0.987701416015625,-0.0062713623046875,-0.158477783203125
1714412580494122800,8.913122802734375,-0.9868011474609375,-0.004425048828125,-0.1599273681640625
1714412580504195600,8.923195556640625,-0.9846343994140625,-0.00579833984375,-0.156494140625
1714412580514268700,8.9332685546875,-0.9863433837890625,-0.0054168701171875,-0.1564178466796875
1714412580524341500,8.943341552734376,-0.9857940673828125,-0.0057373046875,-0.1575775146484375
1714412580534415600,8.95341552734375,-0.9854736328125,-0.006683349609375,-0.1583099365234375
1714412580544488700,8.96348876953125,-0.98626708984375,-0.004486083984375,-0.157470703125
1714412580554561500,8.9735615234375,-0.9867401123046875,-0.005767822265625,-0.1580047607421875
1714412580564635600,8.9836357421875,-0.9857330322265625,-0.007110595703125,-0.157989501953125
1714412580574708700,8.993708740234375,-0.9855194091796875,-0.0052490234375,-0.159027099609375
1714412580584781600,9.003781494140625,-0.9865264892578125,-0.006744384765625,-0.1586456298828125
1714412580594854700,9.013854736328126,-0.9854736328125,-0.0050811767578125,-0.1582183837890625
1714412580604928800,9.0239287109375,-0.98486328125,-0.0053558349609375,-0.1592559814453125
1714412580615001600,9.034001708984375,-0.985992431640625,-0.00604248046875,-0.15765380859375
1714412580625074700,9.04407470703125,-0.9859619140625,-0.0042266845703125,-0.159088134765625
1714412580635147500,9.0541474609375,-0.9861602783203125,-0.005889892578125,-0.1591949462890625
1714412580645221600,9.0642216796875,-0.9859771728515625,-0.006805419921875,-0.15924072265625
1714412580655294700,9.074294677734375,-0.9856414794921875,-0.004638671875,-0.159698486328125
1714412580665367600,9.084367431640626,-0.9857940673828125,-0.006622314453125,-0.1589202880859375
1714412580675441000,9.09444091796875,-0.9866790771484375,-0.0058746337890625,-0.158477783203125
1714412580685514800,9.1045146484375,-0.9853515625,-0.005401611328125,-0.158172607421875
1714412580695587600,9.114587646484376,-0.9849090576171875,-0.00506591796875,-0.1572418212890625
1714412580705660700,9.12466064453125,-0.9844512939453125,-0.0059967041015625,-0.15899658203125
1714412580715733800,9.134733642578125,-0.9859466552734375,-0.0052337646484375,-0.1595001220703125
1714412580725807600,9.1448076171875,-0.9855499267578125,-0.005462646484375,-0.1580810546875
1714412580735880700,9.154880615234376,-0.985260009765625,-0.0071563720703125,-0.158660888671875
1714412580745953800,9.164953857421875,-0.986663818359375,-0.006622314453125,-0.1576690673828125
1714412580756027600,9.175027587890625,-0.985992431640625,-0.0049896240234375,-0.1565093994140625
1714412580766100700,9.185100830078126,-0.98931884765625,-0.003936767578125,-0.15655517578125
1714412580776173600,9.195173583984374,-0.9872589111328125,-0.00665283203125,-0.1566925048828125
1714412580786246700,9.20524658203125,-0.986053466796875,-0.007293701171875,-0.1572265625
1714412580796320800,9.21532080078125,-0.98809814453125,-0.0067138671875,-0.1591796875
1714412580806393600,9.2253935546875,-0.986114501953125,-0.0054168701171875,-0.1576995849609375
1714412580816466700,9.235466796875,-0.9845733642578125,-0.0059661865234375,-0.1592864990234375
1714412580826539800,9.245539794921875,-0.9861907958984375,-0.0067291259765625,-0.1587982177734375
1714412580836613600,9.255613525390626,-0.9830169677734375,-0.0053558349609375,-0.156829833984375
1714412580846686700,9.265686767578124,-0.9830169677734375,-0.0038909912109375,-0.1557159423828125
1714412580856759800,9.275759765625,-0.985595703125,-0.0036468505859375,-0.1583099365234375
1714412580866832600,9.28583251953125,-0.989288330078125,-0.0072174072265625,-0.157318115234375
1714412580876906800,9.29590673828125,-0.98828125,-0.0057373046875,-0.1589202880859375
1714412580886979600,9.3059794921875,-0.98651123046875,-0.0048828125,-0.159210205078125
1714412580897052700,9.316052734375,-0.984344482421875,-0.0072479248046875,-0.15850830078125
1714412580907125800,9.326125732421875,-0.9834136962890625,-0.0078125,-0.1593475341796875
1714412580917199600,9.33619970703125,-0.98541259765625,-0.005462646484375,-0.158782958984375
1714412580927272700,9.346272705078125,-0.9844207763671875,-0.0059661865234375,-0.15643310546875
1714412580937345800,9.356345703125,-0.98553466796875,-0.0086517333984375,-0.158905029296875
1714412580947419600,9.366419677734376,-0.9846649169921875,-0.007598876953125,-0.1586456298828125
1714412580957492500,9.376492431640624,-0.9864654541015625,-0.007354736328125,-0.1574249267578125
1714412580967565800,9.38656591796875,-0.9886016845703125,-0.0061798095703125,-0.15643310546875
1714412580977638700,9.396638671875,-0.9876708984375,-0.00421142578125,-0.1564483642578125
1714412580987712500,9.40671240234375,-0.986541748046875,-0.003997802734375,-0.159088134765625
1714412580997785900,9.416785888671875,-0.98406982421875,-0.005950927734375,-0.1623077392578125
1714412581007858700,9.426858642578125,-0.9844970703125,-0.00604248046875,-0.1599578857421875
1714412581017931800,9.436931884765626,-0.9884796142578125,-0.004180908203125,-0.158111572265625
1714412581028005600,9.447005615234374,-0.98602294921875,-0.005157470703125,-0.1580352783203125
1714412581038078700,9.45707861328125,-0.98419189453125,-0.0066986083984375,-0.157440185546875
1714412581048151800,9.46715185546875,-0.985931396484375,-0.006134033203125,-0.157440185546875
1714412581058224600,9.477224609375,-0.987701416015625,-0.0056304931640625,-0.15789794921875
1714412581068298500,9.487298583984375,-0.9865264892578125,-0.005279541015625,-0.1576080322265625
1714412581078371800,9.497371826171875,-0.98577880859375,-0.005126953125,-0.15838623046875
1714412581088444700,9.507444580078126,-0.984832763671875,-0.0048065185546875,-0.1556396484375
1714412581098517800,9.517517822265624,-0.985595703125,-0.0067291259765625,-0.1591644287109375
1714412581108591900,9.527591796875,-0.986114501953125,-0.0062408447265625,-0.15960693359375
1714412581118664700,9.537664794921875,-0.9858856201171875,-0.0061492919921875,-0.1592254638671875
1714412581128737800,9.54773779296875,-0.987152099609375,-0.00628662109375,-0.1575164794921875
1714412581138810600,9.557810546875,-0.9856719970703125,-0.0070343017578125,-0.158355712890625
1714412581148884700,9.567884765625,-0.9852752685546875,-0.00714111328125,-0.158294677734375
1714412581158957800,9.577957763671876,-0.9863739013671875,-0.0060577392578125,-0.1568450927734375
1714412581169030700,9.58803076171875,-0.9864959716796875,-0.006072998046875,-0.1571044921875
1714412581179104800,9.598104736328125,-0.9852294921875,-0.0067291259765625,-0.1590423583984375
1714412581189177900,9.608177734375,-0.9857635498046875,-0.007354736328125,-0.156463623046875
1714412581199250700,9.618250732421876,-0.984100341796875,-0.00640869140625,-0.157958984375
1714412581209323500,9.628323486328124,-0.9856414794921875,-0.005126953125,-0.159881591796875
1714412581219398000,9.63839794921875,-0.9854583740234375,-0.00469970703125,-0.1591033935546875
1714412581229470700,9.648470703125,-0.987152099609375,-0.005706787109375,-0.1575469970703125
1714412581239543600,9.65854345703125,-0.987274169921875,-0.0065765380859375,-0.1580047607421875
1714412581249616600,9.66861669921875,-0.986724853515625,-0.005126953125,-0.1567230224609375
1714412581259690800,9.678690673828125,-0.9852752685546875,-0.004730224609375,-0.1575775146484375
1714412581269763600,9.688763671875,-0.9841156005859375,-0.005859375,-0.1576080322265625
1714412581279836700,9.698836669921874,-0.98663330078125,-0.0055694580078125,-0.1593475341796875
1714412581289909500,9.708909423828125,-0.985260009765625,-0.005889892578125,-0.1593017578125
1714412581299983600,9.718983642578126,-0.98687744140625,-0.0040435791015625,-0.159820556640625
1714412581310056700,9.729056640625,-0.9869537353515625,-0.0056304931640625,-0.1609344482421875
1714412581320129500,9.739129638671875,-0.9863739013671875,-0.0040435791015625,-0.1603240966796875
1714412581330202600,9.74920263671875,-0.986785888671875,-0.003509521484375,-0.15814208984375
1714412581340276700,9.75927685546875,-0.9845428466796875,-0.0053253173828125,-0.1563720703125
1714412581350349600,9.769349609375,-0.9837493896484375,-0.0048980712890625,-0.157623291015625
1714412581360422700,9.779422607421875,-0.9858245849609375,-0.0057525634765625,-0.158050537109375
1714412581370495700,9.789495849609375,-0.9868011474609375,-0.006011962890625,-0.158111572265625
1714412581380569600,9.799569580078124,-0.986328125,-0.006927490234375,-0.1580657958984375
1714412581390642700,9.809642578125,-0.987335205078125,-0.006561279296875,-0.1569671630859375
1714412581400715500,9.819715576171875,-0.987060546875,-0.0069732666015625,-0.156982421875
1714412581410789600,9.82978955078125,-0.9855804443359375,-0.005828857421875,-0.1590576171875
1714412581420862700,9.83986279296875,-0.98516845703125,-0.00616455078125,-0.1584930419921875
1714412581430935600,9.849935546875,-0.9872283935546875,-0.0056915283203125,-0.1599273681640625
1714412581441009000,9.8600087890625,-0.9870452880859375,-0.005523681640625,-0.1598052978515625
1714412581451082800,9.870082763671874,-0.984710693359375,-0.0062408447265625,-0.1589813232421875
1714412581461155600,9.880155517578125,-0.9842071533203125,-0.0051116943359375,-0.1594390869140625
1714412581471228700,9.890228759765625,-0.986602783203125,-0.00537109375,-0.15966796875
1714412581481301800,9.9003017578125,-0.9858551025390625,-0.0068511962890625,-0.1582489013671875
1714412581491375600,9.910375732421874,-0.987060546875,-0.007049560546875,-0.1571197509765625
1714412581501448700,9.92044873046875,-0.98638916015625,-0.0060272216796875,-0.1583099365234375
1714412581511521500,9.930521484375,-0.986236572265625,-0.005523681640625,-0.159271240234375
1714412581521595000,9.940594970703126,-0.984710693359375,-0.0066680908203125,-0.1584320068359375
1714412581531668700,9.950668701171875,-0.9863739013671875,-0.0049591064453125,-0.1594390869140625
1714412581541741600,9.960741455078125,-0.9863739013671875,-0.005035400390625,-0.1595001220703125
1714412581551815000,9.97081494140625,-0.9871368408203125,-0.005523681640625,-0.1582794189453125
1714412581561887700,9.9808876953125,-0.9872589111328125,-0.005615234375,-0.1579742431640625
1714412581571961600,9.990961669921875,-0.9856719970703125,-0.006317138671875,-0.158477783203125
1714412581582034700,10.00103466796875,-0.9857330322265625,-0.0051116943359375,-0.158416748046875
1714412581592107800,10.011107666015626,-0.98541259765625,-0.0061492919921875,-0.15814208984375
1714412581602181600,10.021181640625,-0.9852447509765625,-0.005767822265625,-0.1590118408203125
1714412581612254700,10.031254638671875,-0.9846954345703125,-0.0061187744140625,-0.1586761474609375
1714412581622327800,10.041327880859376,-0.986236572265625,-0.0066375732421875,-0.159149169921875
1714412581632400600,10.051400634765624,-0.98590087890625,-0.006195068359375,-0.159698486328125
1714412581642474800,10.061474853515625,-0.9868621826171875,-0.0060882568359375,-0.159912109375
1714412581652547600,10.071547607421875,-0.9864044189453125,-0.0055999755859375,-0.159271240234375
1714412581662620700,10.08162060546875,-0.9857177734375,-0.0076446533203125,-0.15850830078125
1714412581672693800,10.09169384765625,-0.985595703125,-0.008026123046875,-0.1600799560546875
1714412581682768000,10.101767822265625,-0.9851837158203125,-0.006744384765625,-0.1591339111328125
1714412581692841000,10.111841064453126,-0.985748291015625,-0.00494384765625,-0.1573028564453125
1714412581702914000,10.1219140625,-0.98687744140625,-0.006439208984375,-0.1587677001953125
1714412581712987000,10.13198681640625,-0.9860992431640625,-0.0071563720703125,-0.158233642578125
1714412581723060700,10.142060791015625,-0.9850311279296875,-0.005462646484375,-0.1587982177734375
1714412581733134000,10.152134033203126,-0.987884521484375,-0.0058746337890625,-0.1567535400390625
1714412581743207000,10.16220703125,-0.98681640625,-0.0058746337890625,-0.15802001953125
1714412581753280000,10.172280029296875,-0.985992431640625,-0.0070648193359375,-0.1587371826171875
1714412581763353900,10.182353759765626,-0.984100341796875,-0.0063018798828125,-0.159423828125
1714412581773427000,10.192427001953124,-0.9864654541015625,-0.005096435546875,-0.1595001220703125
1714412581783500000,10.2025,-0.986297607421875,-0.006439208984375,-0.1579742431640625
1714412581793572900,10.21257275390625,-0.985595703125,-0.006103515625,-0.1571807861328125
1714412581803647000,10.22264697265625,-0.98553466796875,-0.0042877197265625,-0.1587982177734375
1714412581813720000,10.232719970703124,-0.9859161376953125,-0.006195068359375,-0.15997314453125
1714412581823793000,10.24279296875,-0.985504150390625,-0.005126953125,-0.15875244140625
1714412581833866000,10.252865966796875,-0.985137939453125,-0.00592041015625,-0.1573486328125
1714412581843940000,10.262940185546874,-0.985748291015625,-0.00506591796875,-0.15728759765625
1714412581854013000,10.273012939453125,-0.985107421875,-0.0057220458984375,-0.1592254638671875
1714412581864086000,10.2830859375,-0.98663330078125,-0.00543212890625,-0.157379150390625
1714412581874160000,10.29316015625,-0.9869537353515625,-0.0058135986328125,-0.1590728759765625
1714412581884233000,10.30323291015625,-0.98626708984375,-0.0057525634765625,-0.157806396484375
1714412581894306000,10.31330615234375,-0.9854736328125,-0.0069122314453125,-0.1593017578125
1714412581904379000,10.32337890625,-0.9844207763671875,-0.006561279296875,-0.160064697265625
1714412581914453000,10.333452880859374,-0.9828643798828125,-0.0042572021484375,-0.15875244140625
1714412581924526000,10.343526123046875,-0.98760986328125,-0.0053253173828125,-0.158599853515625
1714412581934599000,10.353598876953125,-0.9880218505859375,-0.00732421875,-0.1567230224609375
1714412581944671700,10.363671630859375,-0.9863433837890625,-0.0062255859375,-0.1585235595703125
1714412581954746000,10.37374609375,-0.9873199462890625,-0.0056610107421875,-0.1574859619140625
1714412581964819000,10.38381884765625,-0.985443115234375,-0.006072998046875,-0.1607513427734375
1714412581974891800,10.393891845703125,-0.982940673828125,-0.007476806640625,-0.160675048828125
1714412581984964900,10.40396484375,-0.984283447265625,-0.0054779052734375,-0.1605987548828125
1714412581995039000,10.4140390625,-0.9851226806640625,-0.00701904296875,-0.15826416015625
1714412582005111800,10.42411181640625,-0.98388671875,-0.0073394775390625,-0.15777587890625
1714412582015185000,10.434184814453126,-0.987884521484375,-0.007476806640625,-0.1560821533203125
1714412582025257700,10.4442578125,-0.9869537353515625,-0.0070037841796875,-0.1569976806640625
1714412582035331800,10.454331787109375,-0.9860382080078125,-0.0062103271484375,-0.1583404541015625
1714412582045405000,10.464405029296875,-0.986541748046875,-0.00592041015625,-0.157379150390625
1714412582055477800,10.474477783203126,-0.9866790771484375,-0.0045928955078125,-0.15753173828125
1714412582065551000,10.484551025390624,-0.9853973388671875,-0.0049896240234375,-0.1602783203125
1714412582075625000,10.494625,-0.9851226806640625,-0.0061798095703125,-0.1586761474609375
1714412582085697800,10.50469775390625,-0.9847869873046875,-0.005401611328125,-0.1585693359375
1714412582095771000,10.51477099609375,-0.9858245849609375,-0.0043182373046875,-0.1588134765625
1714412582105845000,10.524844970703125,-0.9832763671875,-0.0052337646484375,-0.1570892333984375
1714412582115917800,10.534917724609375,-0.9846343994140625,-0.0055999755859375,-0.1579132080078125
1714412582125991000,10.544990966796876,-0.987091064453125,-0.0057830810546875,-0.1575775146484375
1714412582136064000,10.55506396484375,-0.9854278564453125,-0.005401611328125,-0.157806396484375
1714412582146137900,10.565137939453125,-0.984893798828125,-0.0057525634765625,-0.1575164794921875
1714412582156211000,10.5752109375,-0.985015869140625,-0.005767822265625,-0.1586151123046875
1714412582166283800,10.58528369140625,-0.9868621826171875,-0.0055389404296875,-0.1588592529296875
1714412582176357000,10.595357177734375,-0.986724853515625,-0.005950927734375,-0.158447265625
1714412582186431000,10.605430908203125,-0.98583984375,-0.0083465576171875,-0.159393310546875
1714412582196503800,10.61550390625,-0.986297607421875,-0.0067291259765625,-0.15863037109375
1714412582206577000,10.625576904296874,-0.9861907958984375,-0.0056304931640625,-0.158721923828125
1714412582216650000,10.63564990234375,-0.9878387451171875,-0.0066986083984375,-0.1598358154296875
1714412582226723800,10.645723876953125,-0.98687744140625,-0.006103515625,-0.1590118408203125
1714412582236797000,10.655796875,-0.9855194091796875,-0.0054931640625,-0.1589508056640625
1714412582246870000,10.6658701171875,-0.9847412109375,-0.0059051513671875,-0.1574859619140625
1714412582256943000,10.675943115234375,-0.98614501953125,-0.0066375732421875,-0.1566162109375
1714412582267017000,10.686016845703126,-0.9849853515625,-0.004608154296875,-0.1570892333984375
1714412582277089800,10.69608984375,-0.9857635498046875,-0.0055084228515625,-0.1597137451171875
1714412582287163100,10.7061630859375,-0.9857940673828125,-0.0045013427734375,-0.15966796875
1714412582297236000,10.716236083984375,-0.9865570068359375,-0.0056304931640625,-0.1595001220703125
1714412582307309800,10.726309814453124,-0.988006591796875,-0.00555419921875,-0.1602783203125
1714412582317383200,10.736383056640625,-0.9875946044921875,-0.0073699951171875,-0.158843994140625
1714412582327456000,10.7464560546875,-0.9847564697265625,-0.007415771484375,-0.158050537109375
1714412582337528800,10.75652880859375,-0.9839019775390625,-0.0064849853515625,-0.158233642578125
1714412582347603000,10.76660302734375,-0.983642578125,-0.005645751953125,-0.1592254638671875
1714412582357676000,10.776676025390625,-0.98583984375,-0.005340576171875,-0.15948486328125
1714412582367748900,10.786748779296875,-0.986846923828125,-0.0057373046875,-0.1609954833984375
1714412582377823000,10.796822998046874,-0.986785888671875,-0.005340576171875,-0.1605987548828125
1714412582387895800,10.806895751953125,-0.9852752685546875,-0.00518798828125,-0.15863037109375
1714412582397969000,10.816968994140625,-0.9865875244140625,-0.005401611328125,-0.1599578857421875
1714412582408042000,10.8270419921875,-0.986114501953125,-0.004547119140625,-0.159759521484375
1714412582418115800,10.83711572265625,-0.98602294921875,-0.0052642822265625,-0.157562255859375
1714412582428189000,10.84718896484375,-0.9844512939453125,-0.005462646484375,-0.15606689453125
1714412582438262000,10.857261962890625,-0.9852142333984375,-0.005462646484375,-0.1581878662109375
1714412582448334800,10.8673349609375,-0.9858551025390625,-0.0067291259765625,-0.15948486328125
1714412582458409000,10.877408935546875,-0.9855499267578125,-0.0061187744140625,-0.15667724609375
1714412582468482000,10.88748193359375,-0.98651123046875,-0.0058746337890625,-0.1576995849609375
1714412582478555000,10.897554931640625,-0.985382080078125,-0.0067291259765625,-0.160858154296875
1714412582488628000,10.9076279296875,-0.98760986328125,-0.0057525634765625,-0.15789794921875
1714412582498702000,10.9177021484375,-0.9879608154296875,-0.003936767578125,-0.159149169921875
1714412582508775000,10.92777490234375,-0.9867401123046875,-0.0064544677734375,-0.160186767578125
1714412582518848000,10.937847900390626,-0.984527587890625,-0.0067291259765625,-0.1610565185546875
1714412582528920800,10.9479208984375,-0.984893798828125,-0.0061798095703125,-0.16143798828125
1714412582538995000,10.957994873046875,-0.9868316650390625,-0.006072998046875,-0.1587371826171875
1714412582549068000,10.968068115234376,-0.9854278564453125,-0.0061187744140625,-0.15887451171875
1714412582559140900,10.978140869140624,-0.9865264892578125,-0.00537109375,-0.160247802734375
1714412582569214000,10.9882138671875,-0.9860076904296875,-0.0065765380859375,-0.15679931640625
1714412582579288000,10.9982880859375,-0.9857177734375,-0.00543212890625,-0.1591033935546875
1714412582589361000,11.00836083984375,-0.985076904296875,-0.0053558349609375,-0.158599853515625
1714412582599434000,11.01843408203125,-0.9864654541015625,-0.0059356689453125,-0.1587371826171875
1714412582609506800,11.0285068359375,-0.9857177734375,-0.0058441162109375,-0.159210205078125
1714412582619581000,11.038580810546875,-0.985870361328125,-0.0048980712890625,-0.1602935791015625
1714412582629654000,11.048654052734374,-0.98681640625,-0.005950927734375,-0.158355712890625
1714412582639726800,11.058726806640625,-0.98614501953125,-0.0067901611328125,-0.1586456298828125
1714412582649800000,11.068800048828125,-0.9868621826171875,-0.006011962890625,-0.1580963134765625
1714412582659874000,11.0788740234375,-0.9862060546875,-0.0070037841796875,-0.1590118408203125
1714412582669947000,11.08894677734375,-0.98638916015625,-0.005584716796875,-0.15838623046875
1714412582680019700,11.099019775390625,-0.9857025146484375,-0.006988525390625,-0.157623291015625
1714412582690093600,11.109093505859375,-0.9854278564453125,-0.0055694580078125,-0.1584625244140625
1714412582700166700,11.119166748046876,-0.9863433837890625,-0.0045166015625,-0.1591644287109375
1714412582710239700,11.12923974609375,-0.986358642578125,-0.0059814453125,-0.15863037109375
1714412582720312600,11.1393125,-0.9855804443359375,-0.0061492919921875,-0.159454345703125
1714412582730386400,11.149386474609376,-0.9860992431640625,-0.0049285888671875,-0.15869140625
1714412582740459800,11.159459716796874,-0.985565185546875,-0.005218505859375,-0.15869140625
1714412582750532600,11.16953271484375,-0.98431396484375,-0.0067291259765625,-0.1582489013671875
1714412582760605700,11.179605712890625,-0.98626708984375,-0.005828857421875,-0.157806396484375
1714412582770679800,11.1896796875,-0.98675537109375,-0.005950927734375,-0.159027099609375
1714412582780752600,11.199752685546875,-0.986419677734375,-0.005859375,-0.15789794921875
1714412582790825700,11.20982568359375,-0.9848175048828125,-0.0062103271484375,-0.1576080322265625
1714412582800898600,11.219898681640625,-0.9857940673828125,-0.0055694580078125,-0.158050537109375
1714412582810972700,11.22997265625,-0.986785888671875,-0.005859375,-0.1589813232421875
1714412582821045800,11.240045654296875,-0.98583984375,-0.0056304931640625,-0.159210205078125
1714412582831118600,11.25011865234375,-0.9865570068359375,-0.004364013671875,-0.1579437255859375
1714412582841191400,11.26019140625,-0.9852294921875,-0.006256103515625,-0.1594085693359375
1714412582851265800,11.270265869140625,-0.98614501953125,-0.005706787109375,-0.1613311767578125
1714412582861338600,11.280338623046875,-0.9863128662109375,-0.0055999755859375,-0.159912109375
1714412582871411500,11.290411376953125,-0.9853057861328125,-0.005615234375,-0.1592864990234375
1714412582881484500,11.300484619140626,-0.9861297607421875,-0.0059814453125,-0.1595306396484375
1714412582891558700,11.31055859375,-0.9862060546875,-0.0053558349609375,-0.1595001220703125
1714412582901631500,11.320631591796875,-0.9864349365234375,-0.0067138671875,-0.1582489013671875
1714412582911704600,11.33070458984375,-0.985992431640625,-0.006134033203125,-0.15802001953125
1714412582921777400,11.34077734375,-0.9868621826171875,-0.005767822265625,-0.160186767578125
1714412582931851500,11.3508515625,-0.9856109619140625,-0.00604248046875,-0.158843994140625
1714412582941924600,11.360924560546875,-0.985931396484375,-0.0070953369140625,-0.15826416015625
1714412582951997400,11.37099755859375,-0.9854278564453125,-0.0066070556640625,-0.15899658203125
1714412582962071600,11.381071533203125,-0.9856109619140625,-0.0046234130859375,-0.158782958984375
1714412582972144600,11.39114453125,-0.984832763671875,-0.006439208984375,-0.158111572265625
1714412582982217500,11.401217529296876,-0.9840850830078125,-0.005767822265625,-0.157470703125
1714412582992290600,11.41129052734375,-0.9859466552734375,-0.0054473876953125,-0.1580963134765625
1714412583002364700,11.42136474609375,-0.9892730712890625,-0.0062103271484375,-0.157928466796875
1714412583012437500,11.4314375,-0.986572265625,-0.004058837890625,-0.1580810546875
1714412583022510600,11.441510498046876,-0.9875335693359375,-0.00531005859375,-0.1594085693359375
1714412583032583700,11.451583740234375,-0.9822235107421875,-0.0050506591796875,-0.1590118408203125
1714412583042657500,11.461657470703125,-0.982666015625,-0.0077362060546875,-0.160736083984375
1714412583052730600,11.471730712890626,-0.985504150390625,-0.00726318359375,-0.158935546875
1714412583062803500,11.481803466796874,-0.986724853515625,-0.0055999755859375,-0.15728759765625
1714412583072876800,11.491876708984375,-0.9863739013671875,-0.00616455078125,-0.158203125
1714412583082950700,11.50195068359375,-0.986053466796875,-0.0065155029296875,-0.1587677001953125
1714412583093023500,11.5120234375,-0.9880218505859375,-0.005157470703125,-0.156890869140625
1714412583103096600,11.5220966796875,-0.98468017578125,-0.0054473876953125,-0.156585693359375
1714412583113169700,11.532169677734375,-0.9858551025390625,-0.0061187744140625,-0.159149169921875
1714412583123243500,11.542243408203126,-0.9847259521484375,-0.00341796875,-0.1585235595703125
1714412583133316600,11.552316650390624,-0.98663330078125,-0.0044708251953125,-0.1574859619140625
1714412583143389700,11.5623896484375,-0.9853668212890625,-0.00469970703125,-0.1595916748046875
1714412583153462500,11.572462646484375,-0.98468017578125,-0.0047760009765625,-0.15899658203125
1714412583163536600,11.58253662109375,-0.987030029296875,-0.0047607421875,-0.1620635986328125
1714412583173609500,11.592609375,-0.986846923828125,-0.004669189453125,-0.158599853515625
1714412583183682600,11.6026826171875,-0.985321044921875,-0.005279541015625,-0.1580047607421875
1714412583193755600,11.612755615234375,-0.986297607421875,-0.006103515625,-0.1566619873046875
1714412583203829500,11.62282958984375,-0.9873199462890625,-0.0055999755859375,-0.1576385498046875
1714412583213902600,11.632902587890625,-0.9865570068359375,-0.00531005859375,-0.15753173828125
1714412583223975700,11.6429755859375,-0.98773193359375,-0.005340576171875,-0.1591033935546875
1714412583234049500,11.653049560546876,-0.986114501953125,-0.0059661865234375,-0.158447265625
1714412583244122600,11.66312255859375,-0.985626220703125,-0.0059356689453125,-0.15765380859375
1714412583254195700,11.67319580078125,-0.9857635498046875,-0.004608154296875,-0.1591644287109375
1714412583264268500,11.6832685546875,-0.986419677734375,-0.005889892578125,-0.1585540771484375
1714412583274342700,11.6933427734375,-0.98541259765625,-0.0073699951171875,-0.158294677734375
1714412583284415700,11.703415771484375,-0.9867095947265625,-0.00531005859375,-0.1604766845703125
1714412583294488600,11.713488525390625,-0.986572265625,-0.00506591796875,-0.1593475341796875
1714412583304561700,11.723561767578126,-0.9865875244140625,-0.0050201416015625,-0.1558074951171875
1714412583314635500,11.733635498046874,-0.9869384765625,-0.00592041015625,-0.1583099365234375
1714412583324708600,11.74370849609375,-0.98699951171875,-0.0063323974609375,-0.1605072021484375
1714412583334781700,11.75378173828125,-0.98516845703125,-0.0062408447265625,-0.1582794189453125
1714412583344854500,11.7638544921875,-0.984405517578125,-0.004302978515625,-0.158447265625
1714412583354928400,11.773928466796875,-0.984375,-0.0048980712890625,-0.1588134765625
1714412583365001700,11.784001708984375,-0.985565185546875,-0.005828857421875,-0.1594696044921875
1714412583375074600,11.794074462890626,-0.9875946044921875,-0.0061187744140625,-0.1573028564453125
1714412583385147600,11.804147705078124,-0.9866180419921875,-0.0056304931640625,-0.15814208984375
1714412583395221800,11.8142216796875,-0.98431396484375,-0.006011962890625,-0.157196044921875
1714412583405294600,11.824294677734375,-0.9844818115234375,-0.006317138671875,-0.15716552734375
1714412583415367700,11.83436767578125,-0.985107421875,-0.005584716796875,-0.15899658203125
1714412583425440500,11.8444404296875,-0.9870758056640625,-0.0044097900390625,-0.1602020263671875
1714412583435514600,11.8545146484375,-0.9864349365234375,-0.0059356689453125,-0.158599853515625
1714412583445587700,11.864587646484376,-0.986663818359375,-0.005828857421875,-0.1603240966796875
1714412583455660500,11.87466064453125,-0.9861602783203125,-0.0041656494140625,-0.15960693359375
1714412583465733600,11.884733642578125,-0.98699951171875,-0.005645751953125,-0.1595306396484375
1714412583475807700,11.894807861328125,-0.9863739013671875,-0.0057373046875,-0.158294677734375
1714412583485880600,11.904880615234376,-0.9852752685546875,-0.00494384765625,-0.1578826904296875
1714412583495953700,11.91495361328125,-0.9843902587890625,-0.0057220458984375,-0.1562042236328125
1714412583506026500,11.925026611328125,-0.985382080078125,-0.0068359375,-0.156646728515625
1714412583516100600,11.9351005859375,-0.9850311279296875,-0.0049591064453125,-0.1573333740234375
1714412583526173700,11.945173583984374,-0.9860382080078125,-0.00616455078125,-0.157073974609375
1714412583536246500,11.95524658203125,-0.9859466552734375,-0.005340576171875,-0.1563568115234375
1714412583546320600,11.965320556640625,-0.9867401123046875,-0.0056304931640625,-0.1585693359375
1714412583556393700,11.975393798828126,-0.9855499267578125,-0.0057220458984375,-0.1573944091796875
1714412583566466600,11.985466552734374,-0.985198974609375,-0.0050506591796875,-0.1589813232421875
1714412583576539400,11.995539306640625,-0.9859466552734375,-0.0057373046875,-0.1604156494140625
1714412583586613800,12.00561376953125,-0.9852447509765625,-0.006683349609375,-0.16009521484375
1714412583596686600,12.0156865234375,-0.9840850830078125,-0.005615234375,-0.1580047607421875
1714412583606759400,12.025759521484375,-0.9861297607421875,-0.005340576171875,-0.159820556640625
1714412583616832500,12.03583251953125,-0.986907958984375,-0.00555419921875,-0.158599853515625
1714412583626906600,12.04590673828125,-0.9858856201171875,-0.0049285888671875,-0.1579742431640625
1714412583636979500,12.0559794921875,-0.98455810546875,-0.005615234375,-0.1584320068359375
1714412583647052500,12.066052490234375,-0.9844512939453125,-0.0063323974609375,-0.15887451171875
1714412583657125600,12.076125732421875,-0.9871673583984375,-0.00518798828125,-0.158355712890625
1714412583667199500,12.086199462890624,-0.9865875244140625,-0.006683349609375,-0.15863037109375
1714412583677272600,12.0962724609375,-0.9854888916015625,-0.0039520263671875,-0.1599578857421875
1714412583687345700,12.106345703125,-0.987396240234375,-0.0056304931640625,-0.1587982177734375
1714412583697419000,12.1164189453125,-0.9867706298828125,-0.0062103271484375,-0.15765380859375
1714412583707492900,12.126492919921875,-0.9853363037109375,-0.004547119140625,-0.158447265625
1714412583717565700,12.136565673828125,-0.987274169921875,-0.005706787109375,-0.1563720703125
1714412583727638800,12.146638671875,-0.9871063232421875,-0.0057373046875,-0.1571197509765625
1714412583737711900,12.1567119140625,-0.9864501953125,-0.00531005859375,-0.160369873046875
1714412583747785700,12.16678564453125,-0.98541259765625,-0.004791259765625,-0.1578369140625
1714412583757858800,12.17685888671875,-0.9849090576171875,-0.0040740966796875,-0.1586151123046875
1714412583767931600,12.186931640625,-0.9854888916015625,-0.0050506591796875,-0.1593780517578125
1714412583778005000,12.1970048828125,-0.985198974609375,-0.0066070556640625,-0.1590423583984375
1714412583788078800,12.207078857421875,-0.9861602783203125,-0.0042266845703125,-0.157012939453125
1714412583798151700,12.217151611328125,-0.9875640869140625,-0.0047454833984375,-0.157379150390625
1714412583808225000,12.22722509765625,-0.9864654541015625,-0.005126953125,-0.1583404541015625
1714412583818297900,12.2372978515625,-0.9844818115234375,-0.004974365234375,-0.1570281982421875
1714412583828371700,12.247371826171875,-0.9850311279296875,-0.0060272216796875,-0.1580963134765625
1714412583838444800,12.25744482421875,-0.985321044921875,-0.0056304931640625,-0.1576690673828125
1714412583848518000,12.267517822265624,-0.9854888916015625,-0.0048370361328125,-0.157501220703125
1714412583858591700,12.277591796875,-0.9857635498046875,-0.005889892578125,-0.15869140625
1714412583868664800,12.287664794921875,-0.986968994140625,-0.005401611328125,-0.1596527099609375
1714412583878738000,12.297738037109376,-0.9850616455078125,-0.0057373046875,-0.1594390869140625
1714412583888810800,12.307810791015624,-0.985565185546875,-0.006134033203125,-0.1590728759765625
1714412583898884900,12.317884765625,-0.98626708984375,-0.0056304931640625,-0.1590576171875
1714412583908957700,12.327957763671876,-0.9840545654296875,-0.0050811767578125,-0.1591796875
1714412583919030800,12.33803076171875,-0.9866943359375,-0.0059967041015625,-0.158233642578125
1714412583929104000,12.348103759765625,-0.987060546875,-0.0049285888671875,-0.1587066650390625
1714412583939177700,12.358177734375,-0.988494873046875,-0.0060577392578125,-0.1584320068359375
1714412583949250800,12.368250732421876,-0.98614501953125,-0.0057525634765625,-0.157623291015625
1714412583959324000,12.378323974609375,-0.9858551025390625,-0.005615234375,-0.1589813232421875
1714412583969396700,12.388396728515625,-0.9856719970703125,-0.0061187744140625,-0.1576385498046875
1714412583979470800,12.398470947265626,-0.9859466552734375,-0.004852294921875,-0.1592254638671875
1714412583989544000,12.4085439453125,-0.9854888916015625,-0.006011962890625,-0.1574554443359375
1714412583999616800,12.41861669921875,-0.9832305908203125,-0.0060882568359375,-0.1572723388671875
1714412584009689900,12.42868994140625,-0.9844970703125,-0.0036468505859375,-0.15771484375
1714412584019763700,12.438763671875,-0.9879608154296875,-0.0060272216796875,-0.1572418212890625
1714412584029836800,12.4488369140625,-0.98736572265625,-0.0074615478515625,-0.1581268310546875
1714412584039910000,12.458909912109375,-0.98822021484375,-0.005615234375,-0.15850830078125
1714412584049982700,12.468982666015625,-0.9858551025390625,-0.00439453125,-0.1587982177734375
1714412584060056800,12.479056884765624,-0.984130859375,-0.00592041015625,-0.159515380859375
1714412584070130000,12.4891298828125,-0.9856414794921875,-0.0043792724609375,-0.158935546875
1714412584080202800,12.49920263671875,-0.986663818359375,-0.005462646484375,-0.1582794189453125
1714412584090275800,12.50927587890625,-0.9853057861328125,-0.0059661865234375,-0.1566925048828125
1714412584100350000,12.519349853515624,-0.983795166015625,-0.007080078125,-0.1568756103515625
1714412584110422800,12.5294228515625,-0.98577880859375,-0.00689697265625,-0.157562255859375
1714412584120495900,12.539495849609375,-0.986663818359375,-0.005340576171875,-0.157806396484375
1714412584130568700,12.549568603515626,-0.9860382080078125,-0.0054931640625,-0.15606689453125
1714412584140642800,12.559642822265625,-0.9851226806640625,-0.00469970703125,-0.15911865234375
1714412584150716000,12.5697158203125,-0.9848175048828125,-0.0047149658203125,-0.158721923828125
1714412584160788700,12.579788818359376,-0.9840850830078125,-0.0053253173828125,-0.1587066650390625
1714412584170862800,12.58986279296875,-0.9860992431640625,-0.0056304931640625,-0.1592864990234375
1714412584180936000,12.59993603515625,-0.98748779296875,-0.004974365234375,-0.1597137451171875
1714412584191008800,12.6100087890625,-0.9853057861328125,-0.0053253173828125,-0.1599273681640625
1714412584201081900,12.620081787109376,-0.9836273193359375,-0.0053558349609375,-0.1578826904296875
1714412584211156000,12.630156005859375,-0.986053466796875,-0.0048675537109375,-0.15771484375
1714412584221228800,12.640228759765625,-0.98687744140625,-0.00396728515625,-0.158843994140625
1714412584231302000,12.650302001953126,-0.98583984375,-0.0051422119140625,-0.158447265625
1714412584241374700,12.660374755859374,-0.9857177734375,-0.00543212890625,-0.1584320068359375
1714412584251448800,12.67044873046875,-0.9858856201171875,-0.0054931640625,-0.160430908203125
1714412584261522000,12.68052197265625,-0.9842529296875,-0.0057525634765625,-0.1595916748046875
1714412584271594800,12.6905947265625,-0.985687255859375,-0.007110595703125,-0.1579132080078125
1714412584281667600,12.70066748046875,-0.9874420166015625,-0.0057220458984375,-0.157989501953125
1714412584291742000,12.710741943359375,-0.98565673828125,-0.00634765625,-0.157806396484375
1714412584301814800,12.720814697265626,-0.985809326171875,-0.0061492919921875,-0.158721923828125
1714412584311887600,12.7308876953125,-0.98516845703125,-0.0067596435546875,-0.1565399169921875
1714412584321961000,12.7409609375,-0.9863128662109375,-0.005767822265625,-0.1581268310546875
1714412584332034800,12.751034912109375,-0.9862213134765625,-0.0067901611328125,-0.158050537109375
1714412584342107600,12.761107666015626,-0.98583984375,-0.00555419921875,-0.1586151123046875
1714412584352180700,12.7711806640625,-0.9852447509765625,-0.0063934326171875,-0.1578826904296875
1714412584362253800,12.78125390625,-0.9857940673828125,-0.006072998046875,-0.1585540771484375
1714412584372327700,12.79132763671875,-0.9852752685546875,-0.0047454833984375,-0.1598663330078125
1714412584382400800,12.80140087890625,-0.985198974609375,-0.0051422119140625,-0.15936279296875
1714412584392473600,12.8114736328125,-0.986175537109375,-0.0059356689453125,-0.158660888671875
1714412584402547000,12.821546875,-0.987884521484375,-0.0070343017578125,-0.157440185546875
