time,seconds_elapsed,z,y,x
1714412571606972200,0.02597216796875,0.11652443870902061,-0.022389818723499773,-0.10802154491022228
1714412571617046300,0.03604638671875,0.006631400838494301,-0.029331308424472808,-0.09759951961711048
1714412571627119400,0.046119384765625,-0.020110475614666938,0.025487930869311094,-0.13603621777817607
1714412571637192200,0.056192138671875,-0.021637831312417984,0.04187492898143828,-0.09303747239857911
1714412571647265300,0.066265380859375,-0.007783493483066559,0.009432950323680415,-0.041704467785358426
1714412571657339400,0.07633935546875,-0.000045592707395553586,-0.0038165626134723423,-0.07824234658777714
1714412571667412200,0.086412109375,-0.08317045063972472,0.010165566314011812,-0.08814853131324052
1714412571677484800,0.09648486328125,-0.19507073667943475,-0.0027642040163278576,-0.06922989583164453
1714412571687559000,0.106558837890625,-0.24841420433223246,-0.00220510882884264,-0.04249970981627702
1714412571697631700,0.1166318359375,-0.22601649456322193,-0.0006171820502728223,-0.01457476105839014
1714412571707704800,0.126704833984375,-0.17262801872491834,-0.02154744048207067,-0.01770224542915821
1714412571717779000,0.136779052734375,-0.10236498045325279,-0.04414718476235866,-0.019994740280508995
1714412571727851800,0.146851806640625,-0.05237842201292515,-0.0698143446560949,-0.002051671832799911
1714412571737924900,0.1569248046875,-0.0679524232417345,-0.05722155119515955,0.017369067952036858
1714412571747997700,0.166997802734375,-0.06719254478514194,-0.06287548530362547,0.016159107640385625
1714412571758071800,0.17707177734375,-0.06084872871637344,-0.06814151607304811,0.02274286994487047
1714412571768145000,0.187144775390625,-0.05699731398522854,-0.07574475761838256,0.025862463270127773
1714412571778217700,0.1972177734375,-0.01988718825280666,-0.0892447290521115,0.051183367009460926
1714412571788291800,0.207291748046875,0.026289456510543822,-0.09069156685955822,0.05379924859628081
1714412571798365000,0.217364990234375,0.05505377870202064,-0.09114946669489145,0.08992869272828101
1714412571808437800,0.227437744140625,0.07184358546137809,-0.08676204539090394,0.13817396045923233
1714412571818511600,0.23751171875,0.05600245772898197,-0.06041895899698138,0.17254297078996897
1714412571828585000,0.2475849609375,0.03404547746479511,-0.024767060115700585,0.1702878853395581
1714412571838657800,0.25765771484375,0.015913023924827574,-0.013423837457597254,0.11095262992605566
1714412571848731000,0.26773095703125,0.023051789763569832,-0.0202668352201581,0.06980681893676519
1714412571858804700,0.2778046875,0.06534019491672516,-0.026355434418842194,0.04773585690408945
1714412571868877800,0.2878779296875,0.07927695033252238,-0.0118538847271353,0.02161445043683052
1714412571878951000,0.297950927734375,0.061976855963468545,-0.012536825489997863,-0.0017502046681940554
1714412571889024800,0.308024658203125,0.012379589101672172,-0.026979986924817782,-0.006736322517693042
1714412571899097900,0.318097900390625,0.002567220139503479,-0.022261077777296304,0.0180066352032125
1714412571909171000,0.3281708984375,0.018586042526364324,-0.034055925793573256,0.038033670318126676
1714412571919243800,0.338243896484375,0.016238602617383004,-0.03247925106137991,0.03826104933321476
1714412571929317600,0.348317626953125,0.02097089183628559,-0.021044970852648837,-0.007698591678589582
1714412571939391000,0.358390869140625,0.011911387068033217,-0.012311711497232317,-0.060551499335467815
1714412571949463800,0.3684638671875,-0.0062432783037424085,-0.021503756603971122,-0.07621756276190281
1714412571959537700,0.37853759765625,0.012740239107608794,-0.004432648685202002,-0.08082841755822301
1714412571969611000,0.388611083984375,0.03942015624046325,-0.006926365197077393,-0.027437749762833117
1714412571979683800,0.398683837890625,0.07037292838692664,-0.009778832018747925,0.024852555575221775
1714412571989757700,0.4087578125,0.12072422848641871,0.005591983921313658,0.07332447166889905
1714412571999830800,0.418830810546875,0.1237052901238203,-0.00816810888648033,0.06205693546235561
1714412572009903900,0.42890380859375,0.08495908762216567,-0.013462708163261413,0.031995120806246995
1714412572019977000,0.43897705078125,0.056280690148472784,0.009547142154723406,0.03207242382615805
1714412572030050800,0.44905078125,0.014134323814511298,0.011976570391887799,0.06970613504126667
1714412572040123600,0.45912353515625,0.014026771786808967,0.006412716586515307,0.019587328523397445
1714412572050197000,0.469197021484375,0.010906009417772292,-0.010473828545585274,0.00013575520887970923
1714412572060270800,0.479270751953125,0.06285188523232936,-0.05217654276527464,0.012880524361133575
1714412572070343700,0.48934375,0.13175532558858394,-0.05331592205874622,0.01625803797021508
1714412572080417000,0.4994169921875,0.13379764507114886,-0.06214410228915512,-0.07942468824014068
1714412572090489900,0.50948974609375,0.04171791178882122,-0.05360343376323581,-0.16558306864947078
1714412572100563700,0.519563720703125,-0.08394318857789039,-0.03614266893975437,-0.16257175800427792
1714412572110636800,0.52963671875,-0.1360872173130512,-0.003667938789865002,-0.050647506567090744
1714412572120710000,0.5397099609375,-0.11897475447058677,-0.008514209777256473,0.08371727086752653
1714412572130783700,0.54978369140625,-0.033545126727223394,-0.06318995808027685,0.12318740372955798
1714412572140856800,0.55985693359375,0.08984744418561458,-0.060673518279939886,0.08231339541897177
1714412572150930000,0.569929931640625,0.1308680213600397,-0.048020592129603024,-0.018561200346052645
1714412572161003800,0.580003662109375,0.09007423867881298,-0.04527940366268158,-0.0914164470680058
1714412572171076900,0.590076904296875,0.031227497434616086,-0.009589803119516,-0.1426246562577784
1714412572181149700,0.600149658203125,-0.03294423822462558,0.003744301094859838,-0.13529606693536042
1714412572191222800,0.610222900390625,-0.06268354292809963,-0.03715849491879344,-0.06910846140906214
1714412572201297000,0.620296875,-0.04095218811333179,-0.007652122188359499,0.019843933632969855
1714412572211369700,0.63036962890625,0.008707622590661048,0.013742621083185075,0.059739306169748305
1714412572221442800,0.64044287109375,0.033438159221410746,0.04085385143854655,0.04151873595491051
1714412572231517000,0.650516845703125,0.038109073641896245,0.021450418981537222,0.01629793158918619
1714412572241589800,0.66058984375,0.058953124228119845,-0.03131327602192759,0.013156418693065643
1714412572251662800,0.670662841796875,0.10581775125563143,-0.06146802052534185,0.03794131585955619
1714412572261737000,0.680737060546875,0.14064239639937876,-0.06493935903087258,0.01597907489836216
1714412572271809800,0.690809814453125,0.09689911626279353,-0.07833418958969414,-0.03469780389368534
1714412572281883000,0.7008828125,0.05484101273417472,-0.07861658672764897,-0.07947188838273286
1714412572291955700,0.710955810546875,-0.012189034965634345,-0.046089404871314764,-0.08889248154833912
1714412572302029800,0.72102978515625,-0.0688368048608303,-0.02619498316012323,-0.06396116164848208
1714412572312103000,0.73110302734375,-0.03764437873959541,-0.029041677828133106,0.016529402257502077
1714412572322175700,0.74117578125,0.040426118412613864,-0.01644070106074214,0.03772036658525467
1714412572332249900,0.751249755859375,0.06252689106166362,0.002890095418319106,0.011899842760711907
1714412572342323000,0.761322998046875,0.026702713486552235,0.045657150933891534,-0.019052344863861797
1714412572352395800,0.771395751953125,-0.0543453381717205,0.06953508932329713,-0.020061375775933265
1714412572362468600,0.781468505859375,-0.12709317899644373,0.05886193881332874,-0.01179258299395442
1714412572372543000,0.79154296875,-0.1505535495609045,0.024090192900598047,0.005201514165848493
1714412572382615800,0.80161572265625,-0.13193302024304865,-0.013701485355198382,-0.018649170890450477
1714412572392688600,0.811688720703125,-0.07367196993231773,-0.0017884908519685268,-0.028854776953905818
1714412572402763000,0.821762939453125,-0.0743050071388483,0.020182737133279442,-0.05331731029823422
1714412572412835800,0.8318359375,-0.05645137054026127,0.018569968174397943,-0.053398412710428236
1714412572422908700,0.84190869140625,-0.038572599500417706,0.0059160921759903425,-0.025478578519076107
1714412572432983000,0.851983154296875,0.006460135924816131,0.03978592994608916,0.01565773398950696
1714412572443055900,0.862055908203125,0.0622357991605997,0.03430916990227997,0.06518968053013086
1714412572453128700,0.872128662109375,0.06971592578291892,0.026896336362510917,0.06133432027623057
1714412572463201800,0.882201904296875,0.057771220967173575,0.008442103522270917,0.0506606583096087
1714412572473276000,0.89227587890625,0.05504384182989597,-0.01977612909376621,-0.0044372517950832845
1714412572483348700,0.9023486328125,0.11450140844881534,-0.026218354902556164,-0.0518501603551209
1714412572493421800,0.912421875,0.13489829978942872,-0.012661036391556262,-0.016357845082879064
1714412572503496000,0.922495849609375,0.09610416649281978,-0.010823811027035116,-0.024532968232035636
1714412572513568800,0.93256884765625,0.047589434170722957,-0.01326893915683031,-0.04519143311828375
1714412572523641900,0.942641845703125,-0.05173603245615959,-0.0029555618699640034,-0.12085866852104662
1714412572533714700,0.952714599609375,-0.1267594169974327,-0.019835165804624556,-0.15722382110506294
1714412572543788800,0.962788818359375,-0.100590956518054,-0.013836656042188405,-0.1437904851667583
1714412572553862000,0.97286181640625,-0.07103519168794155,0.0006769494134932756,-0.13630480558648705
1714412572563934700,0.982934814453125,-0.08903846589028835,0.005380743190273642,-0.16383739402592182
1714412572574008600,0.993008544921875,-0.09392156175673007,0.015834332665428517,-0.15485753036513925
1714412572584082000,1.00308203125,-0.07879355072975158,0.019384061036258934,-0.07874342797771096
1714412572594154800,1.01315478515625,-0.055149055770039555,0.017269626165553928,0.07479775909185409
1714412572604228600,1.023228515625,0.025049685582518577,-0.034207463093474506,0.1613010074160993
1714412572614302000,1.033302001953125,0.06546762068867683,-0.07487981135211884,0.2361000816822052
1714412572624374800,1.043374755859375,0.1469803672492504,-0.07522723655030131,0.2750184258803725
1714412572634448000,1.05344775390625,0.19741350041329858,-0.10357142450041137,0.21476576336100697
1714412572644521700,1.063521728515625,0.1893880148679018,-0.13225180386863647,0.12978811716884373
1714412572654594800,1.0735947265625,0.18698095372617243,-0.14595774620324373,0.1370809045255184
1714412572664668000,1.08366796875,0.15434242044985294,-0.11009257903061806,0.13105740645229816
1714412572674741500,1.093741455078125,0.10780746376812457,-0.038741087935119864,0.12506050412505865
1714412572684814300,1.103814453125,0.06427811864316463,0.03811338449083269,0.08376695522814989
1714412572694887700,1.1138876953125,0.06187748724222183,0.1219539986102376,0.057079000919312235
1714412572704960500,1.12396044921875,0.06706628805696964,0.13617351649017073,0.05256400771290064
1714412572715034400,1.134034423828125,0.06686579704880714,0.08715119083896279,0.03973316771239042
1714412572725107700,1.144107666015625,0.019866145464777947,0.07466762990616262,0.0638370968773961
1714412572735180500,1.1541806640625,-0.061733694857358926,0.07630772526338696,0.0421262003287673
1714412572745254400,1.16425439453125,-0.09890168825685977,0.04388962980471551,0.04112462207078933
1714412572755327500,1.174327392578125,-0.07698679356873035,-0.024438129555433986,0.04970891054272651
1714412572765400600,1.184400634765625,-0.009649871876835822,-0.048904535357281564,0.04527107422575354
1714412572775474400,1.194474365234375,0.01171089605987072,-0.09678387411898001,0.08957578763738273
1714412572785547500,1.204547607421875,-0.017498831811547277,-0.15959308925336227,0.054723962225764984
1714412572795620600,1.21462060546875,-0.030112229669094083,-0.14931602538889274,-0.008206833461672067
1714412572805693700,1.224693603515625,-0.08087152604758739,-0.08974449526779353,-0.08844327647611498
1714412572815767600,1.234767578125,-0.13622165734767913,-0.05347885753549635,-0.07915493138805031
1714412572825840400,1.24484033203125,-0.13117898700535296,-0.05431097924439236,-0.07673559528663754
1714412572835913700,1.254913818359375,-0.11817980470061301,-0.038356618662178515,-0.0950977659292519
1714412572845987600,1.264987548828125,-0.06902268282175064,-0.026965236880257724,-0.028112872545421122
1714412572856060400,1.275060302734375,0.025758710634708405,-0.028695713934674856,-0.034006899020075795
1714412572866133500,1.285133544921875,0.09482581712007522,0.0010452712692320346,0.037321576526016
1714412572876206600,1.29520654296875,0.1442617559403181,-0.018881591406837105,0.086607147090137
1714412572886280400,1.305280517578125,0.16512451122701166,-0.05132781698144972,0.0816783123858273
1714412572896353500,1.315353515625,0.13828677318394184,-0.05004106510654092,0.030511750380694865
1714412572906426600,1.325426513671875,0.09665829324424266,-0.060708662658557296,-0.015344868648052215
1714412572916500500,1.33550048828125,0.04781272153258324,-0.06282521642111241,-0.04214811989963054
1714412572926573600,1.345573486328125,-0.017749591702222824,-0.05753478186279535,0.020687106458842752
1714412572936646400,1.355646484375,-0.03974631945490837,-0.07989975840598344,0.0970291723832488
1714412572946719700,1.3657197265625,-0.01828968992829323,-0.05648439602702856,0.07456380420550704
1714412572956793600,1.375793701171875,-0.03239946382343769,-0.030038068454340098,0.002367313653230667
1714412572966866400,1.385866455078125,-0.011194178709387778,-0.01842310704961419,-0.04465045810937881
1714412572976939800,1.395939697265625,0.006434416961669922,-0.010387611566856502,-0.06110606447830796
1714412572987013600,1.406013671875,-0.007698153287172317,-0.03075790716148913,-0.11746361925527453
1714412572997086500,1.41608642578125,-0.026437340548634527,-0.0450500518862158,-0.1827114597134292
1714412573007159600,1.42615966796875,-0.05934475389420986,-0.04601385541707277,-0.20191694931238888
1714412573017233700,1.436233642578125,-0.07440203777253628,-0.05766388813517987,-0.14743527140989898
1714412573027306500,1.446306396484375,-0.03407119642794132,-0.053489159733802076,-0.08742840034514665
1714412573037379600,1.456379638671875,0.12033026073276996,-0.05799194191261194,-0.03521992807164788
1714412573047452400,1.466452392578125,0.20843992134034633,-0.045711511469632385,0.022342910841852425
1714412573057526500,1.476526611328125,0.2157172188669443,-0.045421296351403,0.10457681128382683
1714412573067599600,1.486599609375,0.1955833623766899,-0.04526544820256531,0.13815788610726595
1714412573077672400,1.49667236328125,0.15492694233953952,-0.020443936219578608,0.09250555747896433
1714412573087746600,1.50674658203125,0.04642039039134979,-0.01915726654306054,-0.043367870952934026
1714412573097819600,1.516819580078125,-0.06741817023456097,0.02078274885304272,-0.19294336926192043
1714412573107892500,1.526892578125,-0.18908581705093383,0.04509346176967956,-0.29821941485628484
1714412573117965600,1.536965576171875,-0.25510405735969544,0.053841407237574454,-0.32342180678248406
1714412573128039700,1.547039794921875,-0.2280208201229572,0.05884929852746427,-0.2638919055797159
1714412573138112500,1.557112548828125,-0.18070143506526945,0.056243801337340846,-0.1583724066182971
1714412573148185600,1.567185546875,-0.10116963318884373,0.045061386130983004,-0.0318000366255641
1714412573158259700,1.577259765625,-0.0226391173094511,0.033804216054826974,0.09378010745942592
1714412573168332500,1.58733251953125,0.05994038169980049,0.02595006848834455,0.1777859860099852
1714412573178405600,1.597405517578125,0.1114011043459177,-0.005455488926917314,0.2032604728758335
1714412573188478500,1.607478515625,0.11940262449383734,-0.022349340582638978,0.20191957966089247
1714412573198552600,1.617552490234375,0.1358522395133972,-0.036420458401250654,0.18944427509978412
1714412573208625700,1.627625732421875,0.1227250469148159,-0.0178344935066998,0.14183248296678067
1714412573218698500,1.637698486328125,0.10369242966473102,0.026065000104904174,0.053230947189033026
1714412573228772600,1.647772705078125,0.05850713402628898,0.039722280992195005,-0.03006751374453306
1714412573238845700,1.657845703125,0.02072422359883785,0.062360672215861265,-0.061328328926861284
1714412573248918500,1.66791845703125,-0.005034487035870552,0.05589015646092593,-0.0525644461043179
1714412573258991400,1.677991455078125,-0.03264262492954731,0.06441029365547,-0.02388970189243555
1714412573269065700,1.688065673828125,-0.022335750448703763,0.04021810168512165,0.03780599904209375
1714412573279138600,1.698138671875,-0.011809095737338066,0.03562091008797288,0.08891250142306088
1714412573289211400,1.70821142578125,0.0011392331629991531,0.024539105711877344,0.07822890258431434
1714412573299285800,1.71828564453125,-0.003153495594859123,-0.014868117981776594,0.03348258288502693
1714412573309358600,1.728358642578125,0.00024549919366836546,-0.05063004397563636,0.050187341709434986
1714412573319431400,1.738431396484375,0.00027998598515987394,-0.056249637423083185,0.04937485628277063
1714412573329505500,1.748505615234375,-0.025874445968866348,-0.035759218013542704,0.01625233888179064
1714412573339578600,1.75857861328125,-0.02869067243337631,-0.03778174138367176,-0.0261313433393836
1714412573349651500,1.7686513671875,0.03593874386548996,-0.033651432079332876,-0.01024608420431614
1714412573359724500,1.778724609375,0.0784744017779827,-0.066378817249462,0.025372049404680727
1714412573369798700,1.788798583984375,0.05376724602282047,-0.04484159676730633,0.028885610483586788
1714412573379871500,1.79887158203125,0.006285363879799843,-0.04272833094038069,0.03679258421584963
1714412573389944600,1.808944580078125,0.04087561574578285,-0.013721943621337412,0.02575476511195302
1714412573400018400,1.819018310546875,0.08537409816384316,0.028828765729814767,0.03741305420175194
1714412573410091500,1.829091552734375,0.017509937727451325,0.012039543492347001,-0.012390110495686531
1714412573420164600,1.83916455078125,-0.08764905735850334,0.0038781566075980663,0.004314648328721523
1714412573430237400,1.849237548828125,-0.07593231607973575,0.009008432168141007,0.012122545600682497
1714412573440311600,1.8593115234375,0.001889174747467041,-0.008114990459755063,0.011429448769986628
1714412573450384600,1.869384521484375,0.01647884111404419,-0.02916311225071549,0.01079495025873184
1714412573460457500,1.87945751953125,0.005194061511754989,-0.012722630385681987,0.0054752165406942365
1714412573470531600,1.889531494140625,0.04043605528473854,0.013930617935955524,0.005175795202702283
1714412573480604700,1.899604736328125,0.06844575971662997,0.01028261682242155,0.01566051046848297
1714412573490677500,1.909677490234375,0.05963701483905315,0.019535379140451548,-0.00896349704787135
1714412573500750600,1.91975048828125,-0.003967734587192536,0.020042310315859502,-0.01713131367340684
1714412573510824700,1.92982470703125,-0.053987026253342625,0.022870953303948043,-0.04309621440470218
1714412573520897500,1.9398974609375,-0.06982581589818,0.0164390936255455,-0.0652615767225623
1714412573530970600,1.949970703125,0.00123217214345932,0.005341653288900852,-0.057237698612362144
1714412573541044500,1.96004443359375,0.09160451698601245,0.012081122178328223,-0.02843026793152094
1714412573551117600,1.97011767578125,0.12132862412035464,0.033328346737963144,-0.003839285901933908
1714412573561190700,1.980190673828125,0.08035363965332508,0.02974609977044165,0.029408173052966592
1714412573571263500,1.990263427734375,0.05716039559245109,0.013004296871274709,0.05506532300934195
1714412573581337300,2.00033740234375,0.041993806120753284,0.000008548632636666298,0.03032850276827812
1714412573591410700,2.01041064453125,0.003265723797678947,-0.0006863702623872086,-0.0070266837663948535
1714412573601483500,2.0204833984375,-0.03712999947667121,-0.006640602491679601,-0.00671834846958518
1714412573611557400,2.030557373046875,-0.04249357233643532,-0.016623724910872988,0.006944120049476623
1714412573621630700,2.040630615234375,-0.02280395248234272,-0.0184373547706753,0.0075220660679042334
1714412573631703600,2.05070361328125,0.047639118531346315,-0.015644143855571745,-0.015520371345430611
1714412573641776600,2.060776611328125,0.09731646489202976,-0.018627908906713127,-0.0807967072457075
1714412573651850500,2.0708505859375,0.10952011290490626,-0.037931890444085,-0.07372457690238952
1714412573661923600,2.080923583984375,0.08673018894791602,-0.02321070665232837,-0.023699147756397723
1714412573671997000,2.090996826171875,0.0197591779589653,-0.014662000950425863,0.027623919984698295
1714412573682070800,2.10107080078125,-0.06638239744603633,-0.01172952769510448,-0.014952654460072516
1714412573692143900,2.111143798828125,-0.13772680121362207,-0.046281708006444384,-0.03519683945700526
1714412573702217000,2.121217041015625,-0.1982721630692482,-0.05364573853500187,0.02215133379250765
1714412573712290800,2.131290771484375,-0.17124328636825084,-0.06549172765004914,0.07221110359951853
1714412573722363600,2.14136376953125,-0.10424071119725703,-0.06821106961134354,0.13593480323031543
1714412573732437000,2.15143701171875,-0.016742460486292837,-0.05842515026468317,0.13206658349484204
1714412573742509800,2.161509765625,0.03763853352069855,-0.05625993962138891,0.09900076471716165
1714412573752583700,2.171583740234375,0.07323474755883216,-0.03247588549393695,0.014204028049856423
1714412573762657000,2.181656982421875,0.07204290742576122,-0.03871719560287892,-0.09165990043506025
1714412573772729900,2.191729736328125,0.04978022221326828,-0.040543310484918764,-0.17482479811683296
1714412573782803000,2.201802978515625,0.0338104996651411,-0.02670475931316614,-0.1843248862594366
1714412573792876800,2.211876708984375,0.042726212048530575,-0.011274112077802418,-0.17621026112586258
1714412573802950000,2.221949951171875,0.03928279359638691,-0.008425006256997585,-0.11062500540688633
1714412573813023000,2.23202294921875,0.03148644063174724,-0.0005076572611927986,-0.0023212825544178485
1714412573823096800,2.242096923828125,0.014638766205310821,-0.001877995766326785,0.0671206485927105
1714412573833169700,2.252169677734375,0.011717325800657272,0.026968451750651,0.10068871780410409
1714412573843243000,2.262242919921875,0.01745908432304859,0.03264021377675235,0.1545218686699867
1714412573853316900,2.27231689453125,0.05389993249177932,0.017725626304745674,0.15759090085178612
1714412573863389700,2.2823896484375,0.04723112225234508,-0.015033681523741687,0.0829914408110082
1714412573873463000,2.292463134765625,0.033900516036152836,-0.01689816022136947,0.013762714023143052
1714412573883536000,2.302535888671875,0.04836392567455768,-0.017971856150776146,-0.024751433288305997
1714412573893609700,2.312609619140625,0.02885492308437824,-0.020962270138412713,-0.05385930822044611
1714412573903682800,2.322682861328125,0.009131400960683822,-0.02779584248550236,-0.04250555503517389
1714412573913756000,2.332755859375,0.003810498198866844,-0.023461466543003916,0.001826338644325733
1714412573923829800,2.342829833984375,0.03273088773488998,0.016771175124123693,0.04481967719644308
1714412573933902800,2.35290283203125,0.061411038774251935,0.036631475370004773,0.1026519807010889
1714412573943976000,2.362975830078125,0.09192658854722977,0.058213557907193896,0.0858152660600841
1714412573954048800,2.373048828125,0.10445289264321327,0.06444996807873249,0.06622720688432454
1714412573964123000,2.383122802734375,0.08448504036962985,0.0647106648415327,0.02901099042892456
1714412573974195700,2.39319580078125,0.04025719158649444,0.05213664914630353,0.0019146014496684073
1714412573984268800,2.403268798828125,-0.007776479220390319,0.025095497485622762,0.01271861179769039
1714412573994343000,2.413343017578125,-0.041166123124957085,0.011259793574793729,-0.001985182467848062
1714412574004415700,2.423415771484375,-0.07842354837357997,-0.00037672435790300367,-0.04575301252380013
1714412574014488600,2.433488525390625,-0.0654600219041109,-0.003028407910466194,-0.07591156555265188
1714412574024562000,2.44356201171875,-0.07078267823159694,-0.027932036085799333,-0.04516717545986175
1714412574034635800,2.4536357421875,-0.05076280350983142,-0.018955821120250037,-0.008614975871145725
1714412574044708600,2.46370849609375,0.0011807342171669005,-0.0054328387036919595,0.033633097271621226
1714412574054782000,2.473781982421875,0.06840192057490349,-0.001493526493385434,0.03647431204691529
1714412574064855800,2.483855712890625,0.057305357021093364,-0.004479410436376929,0.013764175327867268
1714412574074928600,2.4939287109375,0.031871056035161015,-0.02830452266000211,-0.002983399724960327
1714412574085001700,2.504001708984375,-0.043678398206830026,-0.04072458533595782,-0.037341742531210184
1714412574095074800,2.51407470703125,-0.12411854709982871,-0.04703676872402429,-0.06936082873493432
1714412574105148700,2.524148681640625,-0.18124971659779548,-0.052015721613797354,-0.03568082358166575
1714412574115221800,2.5342216796875,-0.08138824339807033,-0.039662002172321076,0.0023432021252810954
1714412574125294800,2.544294921875,0.04007949693202972,-0.030604684794577768,0.035687107191979886
1714412574135368700,2.55436865234375,0.14465923082530496,-0.029092896558716892,0.020891104598343372
1714412574145441800,2.56444189453125,0.11641396407186984,-0.06764905638098716,0.016879238608479497
1714412574155514600,2.5745146484375,0.05605623374283313,-0.05510842693212908,0.01718289773017168
1714412574165588000,2.584587890625,0.006100654962658882,-0.03895414159733336,0.05474383597001433
1714412574175661800,2.594661865234375,0.010686813709139823,0.0021172113496810197,0.06763678142130375
1714412574185734700,2.604734619140625,0.039351182657480235,0.0023457594085484743,0.05381999912336469
1714412574195807700,2.614807861328125,0.03383329601883888,0.004484013546258211,0.019722060818970204
1714412574205881900,2.6248818359375,0.005940495964884758,0.008326368188112974,-0.00014963760375976562
1714412574215954700,2.63495458984375,-0.03405073816180229,-0.0003061433397233486,-0.02419423779696226
1714412574226027800,2.64502783203125,-0.023552725023031233,0.017112901233881712,-0.015697335347533224
1714412574236100900,2.655100830078125,0.008369184416532517,0.02537504507936537,-0.033093291306495666
1714412574246174700,2.6651748046875,0.055545946133136744,0.019226824647933245,0.009265840995311737
1714412574256247800,2.675247802734375,0.04708616082370281,0.016305311178043482,-0.000032440964877605434
1714412574266320600,2.685320556640625,0.0370393985837698,0.008399145729956217,0.0026074060194194314
1714412574276394800,2.695394775390625,0.03121463795304298,0.0016441870104521512,0.034261312172561884
1714412574286467800,2.7054677734375,0.02634966226518154,-0.003933613121882081,0.008709230025857686
1714412574296540700,2.715540771484375,0.028584289449453352,-0.0007113631397485733,0.017192250080406663
1714412574306614000,2.725614013671875,0.04219605069458485,-0.01780446369461715,0.012179244223982096
1714412574316688000,2.73568798828125,0.02633797182738781,-0.026932211393490432,0.003075315792113542
1714412574326760700,2.7457607421875,-0.021124036571383474,-0.022267434452846645,0.0036903789505362506
1714412574336833800,2.755833740234375,-0.07480243526697158,-0.021855634214985185,0.005527969641238451
1714412574346908000,2.765907958984375,-0.047642625662684436,-0.016315978702530265,0.012821049258857964
1714412574356980700,2.775980712890625,-0.003184475255012512,-0.009128843677416443,-0.0018533727817237377
1714412574367053800,2.7860537109375,0.003146481332182884,0.0009758592948317527,-0.019852116939425467
1714412574377126700,2.796126708984375,0.004991232416033745,-0.0153231682728976,-0.004053659304976463
1714412574387200800,2.80620068359375,0.027236966493725773,-0.018288886210694907,0.00008972411006689071
1714412574397273900,2.81627392578125,0.050014615491032595,-0.015940491887065582,0.00749693162664771
1714412574407346700,2.8263466796875,0.054074704536795616,-0.017665347484871745,0.011687222923338413
1714412574417420800,2.8364208984375,0.053608840590715405,-0.008773449801909737,0.005494359632581472
1714412574427494000,2.846493896484375,0.0176589908093214,-0.021602394672855733,0.011245178244262933
1714412574437566700,2.856566650390625,0.03345803296566009,-0.008344488366693258,0.023738602983951567
1714412574447639800,2.866639892578125,0.03098550537228584,-0.01737132840778213,0.04338248400017619
1714412574457714000,2.8767138671875,0.029095746102929112,-0.014445800916478038,0.04082388555854559
1714412574467786800,2.886786865234375,0.031090719312429425,-0.014173852107301354,0.023939824644476172
1714412574477859800,2.89685986328125,0.02257598894536495,-0.0014422346975654363,0.025080665242671964
1714412574487934000,2.906933837890625,0.02524608493745327,0.007778525047004222,0.019274024790525434
1714412574498006800,2.9170068359375,0.02387128945291042,-0.0017548077780753374,0.007663374234735966
1714412574508079900,2.927079833984375,0.02627250537574291,-0.002180631974712014,0.00047141690403223037
1714412574518152700,2.937152587890625,0.013121931901574135,-0.000251490543037653,0.0026442308984696863
1714412574528226800,2.947226806640625,0.006888590469956398,-0.003322637050109915,-0.008110679610818624
1714412574538300000,2.9572998046875,0.0023170447707176207,-0.009191679780557752,-0.01687748504281044
1714412574548372700,2.967372802734375,-0.006757657566666603,-0.009928245860221795,0.016944851190596816
1714412574558446800,2.97744677734375,-0.0020610241830348965,-0.003019859277829528,-0.01914382253959775
1714412574568520000,2.98752001953125,-0.010621347257494926,-0.011422868332150391,-0.005477993019670248
1714412574578592800,2.9975927734375,-0.020528993287682533,-0.00011032850667834281,0.0050436932556331155
1714412574588665600,3.00766552734375,-0.011131050345301628,0.011118556189909578,0.007770926262438297
1714412574598740000,3.017739990234375,-0.02442775429189205,0.003146193637815304,0.007344079152494669
1714412574608812800,3.027812744140625,-0.01511632058918476,-0.001106280741468072,0.01595803211033344
1714412574618885600,3.0378857421875,-0.013420038065314293,-0.010947578970598988,0.008169131799787283
1714412574628960000,3.0479599609375,-0.009724690678715705,0.01696728221811354,0.008407470600306987
1714412574639032800,3.05803271484375,0.016077274575829505,-0.008401990707591175,-0.0030712241388857362
1714412574649105700,3.068105712890625,0.02947802341878414,-0.01081445867680013,0.0019435352832078933
1714412574659178800,3.0781787109375,0.027618659287691114,-0.004215425737947225,0.018610738576203583
1714412574669252900,3.0882529296875,0.01078676695227623,-0.01037760162949562,0.020674685368686913
1714412574679326500,3.098326416015625,0.03071487173736095,-0.014164499757066368,0.016922200967371463
1714412574689399800,3.10839990234375,0.024907646763324735,-0.008964154634997248,0.02991553805321455
1714412574699472600,3.11847265625,0.025669863307476042,0.0033648733232170343,0.012173399005085229
1714412574709546500,3.12854638671875,0.02354337267279625,-0.006202357204887084,0.003843523685634136
1714412574719619600,3.13861962890625,0.018543372428417203,-0.008884947352367454,-0.0007103402264416217
1714412574729692700,3.148692626953125,0.010405658680200576,-0.0042936740393517536,0.028825843120366332
1714412574739766500,3.1587666015625,0.005144961673021317,-0.012081336807459592,0.0153542209982872
1714412574749839600,3.168839599609375,0.008712298765778542,-0.016045198937132955,0.014454349549114703
1714412574759912400,3.178912353515625,0.0019259996265172958,-0.012705236292886547,0.0013189736440777779
1714412574769985800,3.18898583984375,-0.007531564548611641,-0.005076134220510721,-0.01031271969974041
1714412574780059600,3.1990595703125,0.023105565777420997,0.008875165743869729,0.009681289928406476
1714412574790132500,3.209132568359375,0.009026187020540238,0.0016448491641553118,-0.003549655305594206
1714412574800205800,3.219205810546875,0.005559387692809104,-0.008033230460435152,0.009476853397488593
1714412574810279700,3.22927978515625,0.02823942153453827,-0.00244571265168488,0.014226970534026622
1714412574820352500,3.2393525390625,0.011458967125415801,0.006766206199303269,0.00178878311291337
1714412574830425600,3.249425537109375,-0.026415128716826438,-0.01168802207435947,-0.0020050562120974063
1714412574840498700,3.259498779296875,-0.015184709650278091,-0.025960589882358907,0.002893821745365858
1714412574850572500,3.269572509765625,-0.01557166314125061,-0.008218373202416114,0.007304185533523559
1714412574860645600,3.279645751953125,-0.002054594442248344,-0.018181991770118474,-0.0021354045934975146
1714412574870718700,3.28971875,0.025816578301787376,-0.015624781567975877,-0.004614800319075584
1714412574880792600,3.29979248046875,0.00805704972743988,-0.019496070043370128,-0.0007169160977005958
1714412574890865700,3.30986572265625,0.005385784691572189,-0.021405629991739988,-0.012381488797813653
1714412574900938500,3.3199384765625,0.01374386319220066,-0.013032207791507244,0.00959814168959856
1714412574911011600,3.330011474609375,0.025131518647074698,-0.018466873126104472,0.02011953570395708
1714412574921085700,3.340085693359375,0.01648234824538231,-0.01582125398814678,0.02680675838291645
1714412574931158500,3.350158447265625,0.0069207391738891596,-0.003997033746913075,0.02386734393015504
1714412574941231600,3.360231689453125,0.012898060017824172,-0.000028856201726011932,0.0363400181427598
1714412574951305700,3.3703056640625,0.014813538250327109,-0.006303191797435283,0.028893647659569976
1714412574961378600,3.380378662109375,0.01849953328669071,0.006290186185389757,0.00798515353500843
1714412574971451600,3.39045166015625,0.02053776111602783,-0.005738758281129412,0.0038503918178379535
1714412574981524700,3.400524658203125,0.005808978539705276,-0.006493302975478582,-0.014151713340729474
1714412574991598600,3.4105986328125,-0.0006774608701467514,-0.009026109388726763,-0.009041238459199666
1714412575001671700,3.420671630859375,-0.0024900632500648497,-0.008462050331756472,-0.008048281899094581
1714412575011744500,3.43074462890625,-0.002044073048233986,-0.009510020448151043,0.010373656106740235
1714412575021818600,3.440818603515625,0.012163900524377822,-0.005827171783521771,0.008169277930259703
1714412575031891700,3.4508916015625,0.00962298386991024,-0.006998115259036422,0.007853636109828949
1714412575041964500,3.460964599609375,-0.002209492743015289,-0.01717858688123524,0.009274608823657035
1714412575052037600,3.47103759765625,0.010224456894397735,-0.007679224824416451,0.007389817990362643
1714412575062111700,3.48111181640625,0.009007482320070266,-0.0013814444210380316,-0.01448430629596114
1714412575072184600,3.4911845703125,0.011082535028457642,-0.002962283871695399,0.0074915247991681096
1714412575082257400,3.50125732421875,0.009583236381411552,-0.02760959463182371,-0.010447159734368324
1714412575092330800,3.511330810546875,0.015279986718297004,-0.005776172248646617,-0.012010463528335093
1714412575102404600,3.521404541015625,0.012601122897863387,-0.0020323095452040433,0.006750058782100677
1714412575112477400,3.5314775390625,0.02263794826567173,-0.021621172438561913,0.028821459206193684
1714412575122550500,3.541550537109375,0.02533960843980312,-0.017291691866889596,0.00033463878184556957
1714412575132624600,3.551624755859375,0.008598901519179344,-0.009942274385574273,-0.007266191610693931
1714412575142697500,3.561697509765625,0.012302432212233544,-0.0009836042098701,0.0056866673342883586
1714412575152770600,3.5717705078125,0.025744682109355925,-0.012403919825330376,-0.0013416238673031329
1714412575162843600,3.58184375,0.026140403428673742,0.0015573855098336934,0.0069109484322369095
1714412575172917500,3.59191748046875,0.032231121519207956,-0.009753186120837927,-0.011523264533281325
1714412575182990600,3.601990478515625,0.014990063861012457,-0.02101093158572912,-0.015062398444861173
1714412575193063400,3.6120634765625,0.007342763978242873,0.00011705507498700171,0.019899024821072815
1714412575203137500,3.622137451171875,0.0008744447469711303,-0.010845657532662152,0.011725801368057728
1714412575213210600,3.632210693359375,0.027159809604287145,-0.0061906713336706155,0.0066524436265230176
1714412575223283500,3.642283447265625,0.02022621094882488,-0.0003181991036981344,0.01579626567736268
1714412575233356800,3.652356689453125,0.014914076015353201,-0.005435834378376603,-0.0054375148788094515
1714412575243430700,3.6624306640625,-0.002637362766265869,0.0003485942419618368,-0.002024199303984642
1714412575253503500,3.67250341796875,0.0006289455533027648,0.004630221650493331,-0.014577245276421307
1714412575263576600,3.68257666015625,0.01738543456494808,-0.002032743370044045,-0.009921966816484927
1714412575273650700,3.692650634765625,0.00036941783428192136,-0.0052574821367859835,-0.01797024871557951
1714412575283723500,3.7027236328125,0.005793196448683738,0.0012098187477560713,-0.0038357787705957888
1714412575293796600,3.712796630859375,0.013871288964152335,0.0013411169772269203,0.02281549678966403
1714412575303869400,3.722869384765625,0.018815759629011154,0.008201938090845943,0.022324352271854878
1714412575313943600,3.732943603515625,0.026285364857316015,-0.013416745563107542,0.0159719145052135
1714412575324016600,3.7430166015625,0.03540215277075767,-0.018877061362192034,0.01588584365695715
1714412575334089500,3.75308935546875,0.010688567274808883,-0.016294205262139438,0.019619184966385362
1714412575344163600,3.76316357421875,-0.011000117442011832,0.003027608759445138,-0.0054288931809365745
1714412575354236700,3.773236572265625,0.02490180154442787,-0.007530829329672269,0.009745879597216844
1714412575364309500,3.7833095703125,0.023408348116278645,-0.005025865337997675,0.028431729236245155
1714412575374382600,3.793382568359375,0.005051438170671462,-0.007586290410533547,0.004785626841336489
1714412575384456700,3.803456787109375,0.016142156505584714,-0.004906184481084347,0.00826820826008916
1714412575394529500,3.813529541015625,0.018705284991860388,-0.0035217443853616712,0.014129939900338648
1714412575404602600,3.8236025390625,0.02561725633740425,-0.006085891218367032,0.005872837556153535
1714412575414675700,3.83367578125,0.022619243565201758,-0.00975881214402616,0.0011180442444980144
1714412575424749600,3.84374951171875,0.00791501090824604,-0.007566777425887994,-0.006260375569015741
1714412575434822700,3.85382275390625,0.00012684125006198882,-0.010449351691454648,-0.011907295414805412
1714412575444895500,3.8638955078125,0.018515315377712248,0.00011507774703204631,-0.001779723023623228
1714412575454969600,3.873969482421875,0.021208207723498344,-0.008639744986221195,0.009300620047748087
1714412575465042700,3.884042724609375,0.014606617501378058,-0.0041132074724882835,0.005070142871141433
1714412575475115500,3.894115478515625,0.022366730108857154,-0.001040522028878331,0.011788637471199036
1714412575485188600,3.904188720703125,0.008290858483314513,0.008076412015035749,-0.0013179507307708263
1714412575495262700,3.9142626953125,0.006643675798177718,-0.006455386684462427,0.000929097543656826
1714412575505335600,3.92433544921875,0.001547229442000389,-0.0022058349146274847,-0.002162438730895519
1714412575515408600,3.93440869140625,0.0039461072772741315,0.007655706951511092,0.005130056364834309
1714412575525482800,3.944482666015625,0.010527239233255386,-0.004774667055904865,0.00020268296524882315
1714412575535555600,3.9545556640625,0.019356442376971244,-0.008911255403980613,0.020847119326144456
1714412575545628700,3.964628662109375,0.017559622088074683,-0.023710760562377982,0.006341185720264911
1714412575555701500,3.974701416015625,0.02085632554590702,-0.008182721933722496,-0.007754413519054651
1714412575565775600,3.984775634765625,0.020527239722013473,0.007775314743188209,-0.0009841887317597867
1714412575575848700,3.9948486328125,0.01975041013062,0.007794964725151657,0.00652399494126439
1714412575585921500,4.004921630859375,0.003732756787538528,-0.011006474117562174,-0.004960837277770042
1714412575595995600,4.01499560546875,0.01210427929162979,0.00340535146407783,0.017835954811424016
1714412575606068700,4.02506884765625,0.0033978257447481153,0.0038851023716153575,0.007384411162883043
1714412575616141600,4.0351416015625,0.008773673564195632,0.004993643568828702,0.017027414907515047
1714412575626214400,4.04521435546875,0.007870002722740172,0.0005133563496172428,-0.0058380585037171836
1714412575636288800,4.055288818359375,-0.007701660418510436,-0.007522431394085287,-0.01640460683405399
1714412575646361600,4.065361572265625,0.008746201035380362,-0.005378181340429,-0.011539046624302864
1714412575656434400,4.075434326171875,0.024895956325531005,-0.004476707022637128,0.004537643429636955
1714412575666507800,4.0855078125,0.020246084693074224,0.0004700286645442247,-0.0063131286695599555
1714412575676581400,4.095581298828125,0.027743746972084045,0.006542704208311625,-0.008802899658679962
1714412575686654200,4.105654296875,0.012913257586956023,-0.007133432076498866,0.003714636608958244
1714412575696727600,4.1157275390625,0.02336509349644184,-0.008560099312174134,0.006255991654843092
1714412575706801400,4.125801513671875,-0.0038929157853126524,0.015512188038975,-0.002883884873241186
1714412575716874200,4.135874267578125,-0.01860416270494461,-0.024790596254914997,-0.0009592004209756851
1714412575726947600,4.145947509765625,-0.013078677281737327,-0.011277833838271908,0.021257015301287173
1714412575737020400,4.1560205078125,0.0028086276799440383,0.020916681997594423,0.0007452654093503951
1714412575747094300,4.16609423828125,0.0074240125209093085,-0.009457637240365148,-0.0013557985231280325
1714412575757167400,4.17616748046875,0.018505378505587578,-0.012394928234699181,-0.006338847632706165
1714412575767240400,4.186240478515625,0.027202479702234265,-0.013357128896936774,-0.011838614092767237
1714412575777314300,4.196314208984375,0.01910334439873695,0.0016930676534771918,0.0009945639953017234
1714412575787387400,4.206387451171875,0.016084288838505743,-0.011288939754175952,0.005354951161891222
1714412575797460500,4.21646044921875,0.0067763622671365735,-0.01227144798550289,0.018555062866210937
1714412575807533600,4.226533447265625,-0.002792261067032814,-0.010311034632730297,0.01789937543645501
1714412575817607400,4.236607421875,-0.0001274257719516754,-0.0033807284794747827,0.01343669693917036
1714412575827680300,4.24668017578125,0.009437105908989905,-0.0016840029976097866,0.020252368303388356
1714412575837753600,4.256753662109375,0.010936989077925681,-0.00744805098362267,0.0278534909568727
1714412575847826400,4.266826416015625,0.009574468553066253,0.018815613498538733,0.014325754733383655
1714412575857900300,4.276900390625,0.024069442373514174,0.014045476487278937,0.008770166432857513
1714412575867973400,4.286973388671875,0.019263503396511075,-0.0005039263675687834,-0.00818228354230523
1714412575878046500,4.29704638671875,0.02794774511158466,0.0028026363305747506,-0.0011848258703947066
1714412575888120300,4.307120361328125,0.004913491004705429,0.005180183683452196,0.023591303467750548
1714412575898193400,4.317193359375,0.0014671499431133269,0.00010594459250569344,0.016882599609345197
1714412575908266500,4.3272666015625,0.014174655824899672,-0.00454962612837553,0.0172559629663825
1714412575918339600,4.337339599609375,0.012990414476394653,0.0023955168344080447,0.02270925993621349
1714412575928413400,4.347413330078125,0.030803134542703628,-0.011254968985915183,0.018334844244271516
1714412575938486300,4.357486328125,0.006258475872874259,0.00249364344663918,0.0038398704238235947
1714412575948559600,4.3675595703125,-0.00031388825476169586,0.0013397972363978624,-0.0017746084570884704
1714412575958633500,4.377633544921875,0.013308394384384154,-0.011617879447597079,0.003733633570373058
1714412575968706300,4.387706298828125,0.011975099954009055,-0.013028257702174596,0.02355418632775545
1714412575978779600,4.397779541015625,0.013029577443003653,-0.0007359130591154098,0.0010619301430881023
1714412575988852500,4.4078525390625,0.008829787665605545,-0.004727754607680253,-0.01592953666821122
1714412575998926300,4.41792626953125,0.011235095241665839,0.0053155735661508515,0.01662087993323803
1714412576008999400,4.42799951171875,0.008554477855563163,-0.017096603119629433,0.025069120935350655
1714412576019072500,4.438072509765625,0.007668927192687988,-0.009595292145386338,-0.0007443886265158652
1714412576029145600,4.4481455078125,0.019327800804376603,-0.005785159272700548,0.005476970106363296
1714412576039219500,4.458219482421875,0.022763620471954345,0.00967887877561152,0.009554740939289331
1714412576049292300,4.468292236328125,0.00017068039178848266,0.017045754281803965,0.0049020928278565405
1714412576059365600,4.47836572265625,0.01224631811082363,0.004914586983248591,-0.0055909518748521805
1714412576069439500,4.488439453125,0.003090367230772972,-0.007478592252358794,-0.0028729250878095627
1714412576079512300,4.49851220703125,-0.004379822519421577,0.011219678476825356,-0.0005497428372502327
1714412576089585700,4.508585693359375,-0.002879354828596115,-0.012002280221879482,0.009893032982945442
1714412576099658500,4.518658447265625,0.01731178480684757,-0.013329944062489085,0.016248539489507673
1714412576109732400,4.528732421875,0.027151041775941846,-0.011732742565497755,0.013029723573476076
1714412576119805400,4.538805419921875,0.02577157011628151,0.004281627408531494,-0.0030785306625068184
1714412576129878500,4.54887841796875,0.004969605106115341,-0.0033630466923117637,-0.006057108081877231
1714412576139951400,4.558951416015625,0.00734510206580162,-0.0027361469656229016,0.0022885493285953996
1714412576150025500,4.569025390625,-0.013761983370780944,-0.006559869972243905,-0.00409866749048233
1714412576160098600,4.5790986328125,-0.007604629784822464,0.002834273577854037,0.005638444278389215
1714412576170171400,4.58917138671875,0.012789338946342467,-0.006576017389446497,0.0107575408577919
1714412576180245500,4.59924560546875,0.00982815105319023,0.013517945481836794,0.004876666125655174
1714412576190318300,4.609318359375,0.0182125330388546,-0.0008598316997289657,-0.000987257471680641
1714412576200391400,4.619391357421875,0.025826515173912046,-0.005015704703587107,0.008704407720267772
1714412576210464500,4.629464599609375,0.027777649241685867,0.0058357204161584375,0.022888562025874852
1714412576220538400,4.639538330078125,0.00395487510561943,0.004076894050091505,0.01319791974723339
1714412576230611200,4.649611083984375,-0.006549567773938178,-0.018446191097679546,0.016829408117383718
1714412576240684500,4.6596845703125,-0.0005728314518928528,-0.010317322809621691,0.020472879186272618
1714412576250758400,4.66975830078125,0.011098317119479178,0.00974887983847875,-0.005859393552690744
1714412576260831200,4.679831298828125,0.0077712185233831405,-0.005152560457587242,0.006931260567903518
1714412576270904600,4.689904541015625,0.011924246549606322,-0.0026288871988654136,0.019725860211253166
1714412576280977400,4.699977294921875,0.00699263536632061,0.005492313805967569,-0.01188318388685584
1714412576291051300,4.71005126953125,0.023913375028967856,0.003628497262042947,-0.007762012303620576
1714412576301124400,4.720124267578125,0.009110942694544792,-0.01431026490330696,-0.005141454541683197
1714412576311197400,4.730197509765625,0.004078793746232986,-0.006854322874173521,0.003947422451525926
1714412576321270500,4.7402705078125,0.023124270477890965,0.002786050521954894,0.011171528486162423
1714412576331344400,4.750344482421875,0.012050503277778625,0.005627854385715909,0.00025528993532061573
1714412576341417500,4.76041748046875,0.0009726444244384765,-0.010102437949925661,0.005819792194664478
1714412576351490600,4.770490478515625,0.002921440404653549,-0.0037776142759947105,-0.0031755612961947917
1714412576361564400,4.780564453125,0.007557868033647537,-0.01364186412245035,-0.006603636048734188
1714412576371637200,4.79063720703125,0.006067337214946746,-0.0023198166831163687,-0.00604454086124897
1714412576381710600,4.800710693359375,0.010699673190712928,-0.0032174276765435934,-0.006152092888951301
1714412576391783400,4.810783447265625,0.007997428494691849,0.007396686122566461,0.012759674460440873
1714412576401857300,4.820857177734375,0.012953005075454712,-0.005661752088740468,0.00007481880187988281
1714412576411930400,4.830930419921875,0.011451952862739562,-0.005708806100860238,-0.005878828905522823
1714412576422003500,4.84100341796875,0.029248890838026998,-0.011878069320321082,0.013785948768258094
1714412576432077300,4.851077392578125,0.010393383720517157,-0.013155245082709006,0.005563771606981754
1714412576442150400,4.861150390625,0.015474632507562636,-0.00008132160790264606,0.00260725988894701
1714412576452223500,4.871223388671875,0.006795651489496231,-0.00592559065669775,0.01607405970543623
1714412576462296600,4.881296630859375,0.008591302734613417,-0.007984715143591165,-0.000083002108335495
1714412576472370400,4.891370361328125,0.014132570248842239,0.00023724282197654247,0.003031184389442205
1714412576482443300,4.901443359375,0.012762450939416884,0.003943038537353277,0.010061667548120021
1714412576492516600,4.9115166015625,0.004822305589914321,0.005078257678938098,0.0036906712114810943
1714412576502589400,4.92158935546875,-0.010275894820690154,-0.003628784956410527,0.0044870822861790656
1714412576512663300,4.931663330078125,0.008860182803869247,-0.009063664920139125,0.007443886265158653
1714412576522736600,4.941736572265625,0.0030231472134590147,-0.016206673109158874,-0.0007785831570625305
1714412576532809500,4.9518095703125,-0.006401683735847472,-0.005034555534529499,0.008938216476142406
1714412576542883300,4.96188330078125,0.0021294132441282273,0.0008500455246539786,0.018203619080036877
1714412576552956400,4.971956298828125,0.017682371684908865,-0.00868643367215991,-0.00194324302226305
1714412576563029500,4.982029541015625,0.008109072175621986,-0.006516103895753622,-0.009750701902806759
1714412576573102600,4.9921025390625,0.006471826362609863,-0.010214077064278534,-0.002016454388946295
1714412576583176400,5.002176513671875,0.0028588965624570845,-0.02675627030469477,0.021457067918032407
1714412576593249300,5.012249267578125,0.018296704190969466,-0.0017626988235861063,0.002147679553180933
1714412576603322600,5.022322509765625,0.01201367839872837,-0.005905789977684617,-0.008041706027835606
1714412576613395500,5.0323955078125,0.013391981014609335,-0.001567103186249733,-0.0034510172367095944
1714412576623469300,5.04246923828125,0.015796704068779945,0.005581019569304771,-0.003507861990481615
1714412576633542700,5.052542724609375,0.03448854505717754,0.0035969285134226084,0.007794891659915447
1714412576643615500,5.062615478515625,0.018460954841971397,-0.007141683881613426,-0.0019769991613924503
1714412576653689300,5.072689453125,0.014422493106126784,0.004462975324806757,0.0008513561323285102
1714412576663762400,5.082762451171875,-0.0035369419544935225,0.001629354767501354,0.006698182464390993
1714412576673835500,5.09283544921875,0.008593640822172165,0.006459405272454023,0.002306231115758419
1714412576683907800,5.102907958984375,0.020401567515730856,-0.005503858113288879,0.003586187923699617
1714412576693981700,5.112981689453125,0.007970540487766265,0.003983589743450284,-0.01071224041134119
1714412576704054500,5.123054443359375,-0.0021954642176628112,0.0030518618512898684,-0.004334083681553602
1714412576714128000,5.1331279296875,0.01051087262034416,-0.003288447086140513,-0.00544978983849287
1714412576724201700,5.14320166015625,0.026797406032681464,-0.010521540144830942,0.0006887129165232181
1714412576734274600,5.153274658203125,0.010175357055664061,0.002303746897727251,0.012139058344066143
1714412576744347600,5.16334765625,0.025696166792511937,-0.014834361842647194,0.004769552489370108
1714412576754420700,5.173420654296875,0.026112346377968786,0.006019771746173501,0.01379632403180003
1714412576764494600,5.18349462890625,-0.0071305825322866435,0.013938586613279767,0.002567074009031057
1714412576774567700,5.193567626953125,-0.013025485789775847,-0.014762319519743322,0.023883126021176575
1714412576784640800,5.203640869140625,-0.010003507620096205,-0.0011783961296081542,-0.01310468850582838
1714412576794713900,5.2137138671875,-0.011024667361378668,0.006415200804546475,0.0025942542769014833
1714412576804787700,5.22378759765625,0.02502338209748268,-0.010866042733564972,-0.011385609628260135
1714412576814860500,5.233860595703125,0.0422328755736351,-0.007144830253347754,0.008665537014603614
1714412576824934000,5.243933837890625,0.03531447448730469,-0.004990647894144058,0.007680763760954141
1714412576835007700,5.2540078125,0.03737725223600864,-0.008863689935207366,0.008623305308073759
1714412576845080600,5.26408056640625,0.006692191115021705,-0.024084566877409813,0.0039028526574373243
1714412576855154000,5.27415380859375,-0.007965279790759085,-0.00796227954949718,0.024218641585856675
1714412576865226800,5.284226806640625,-0.0207002582013607,-0.012038004555809311,0.021326135014742613
1714412576875300600,5.294300537109375,0.018664952981472013,-0.0112651981189847,0.021261399215459824
1714412576885373700,5.304373779296875,0.0306213482350111,0.006521364592760801,0.0189531222730875
1714412576895446800,5.31444677734375,-0.0022901567637920377,-0.0007193957491545006,0.022336042709648608
1714412576905519600,5.32451953125,0.01969780316054821,0.008456058982387184,-0.0011056231543421745
1714412576915593700,5.33459375,0.01969897220432758,0.016438362973183393,0.000535568181425333
1714412576925666600,5.34466650390625,0.01445931798517704,0.010357947080954909,-0.002738923444598913
1714412576935739600,5.35473974609375,0.024509002834558487,-0.013017010222375391,0.014764730672538279
1714412576945813800,5.364813720703125,0.009732289463281632,-0.000543824553117156,-0.00626388270035386
1714412576955886600,5.374886474609375,0.010332008922100067,0.011224281586706637,-0.0038771336942911147
1714412576965959700,5.384959716796875,0.01168166996538639,-0.011980506781488657,0.0055320612944662565
1714412576976032800,5.39503271484375,0.0009147767573595046,0.0004226823914796114,0.013569675669074058
1714412576986106600,5.405106689453125,0.024089900639653203,0.01862521005955059,0.023122955303639173
1714412576996179500,5.415179443359375,0.01541910292804241,0.00004435059837996959,0.005114858795702457
1714412577006252800,5.425252685546875,0.02078442935347557,-0.01502418075974565,0.006447422573715448
1714412577016325600,5.43532568359375,0.008500701841711998,-0.0017046850260347126,-0.012179828745871781
1714412577026399500,5.4453994140625,0.00713467418551445,-0.007136277054133825,0.007241787821799516
1714412577036472800,5.455472900390625,0.024486791002750394,-0.006902838191017508,0.010270780254155397
1714412577046545700,5.465545654296875,0.00011398176848888397,-0.010502470118179917,-0.008553601072728633
1714412577056619500,5.47561962890625,0.00448211385011673,-0.01106565695889294,0.005027180512249469
1714412577066692600,5.485692626953125,0.009450549912452698,-0.01810914116303902,0.01397474933862686
1714412577076765700,5.495765625,0.008391396248340606,-0.0038738457586616273,0.007162585105746984
1714412577086838800,5.5058388671875,0.0013473229557275771,0.0017987245516153051,0.006785568486899137
1714412577096912600,5.51591259765625,0.02557049458622932,-0.007644011947140097,-0.00372223539352417
1714412577106985500,5.5259853515625,0.01941314100027084,0.0015536591827869414,-0.016908756963908672
1714412577117058800,5.536058837890625,0.02791851901710033,0.009196506652724928,-0.0034448797568678853
1714412577127131600,5.546131591796875,0.01666179646551609,-0.007403768883901648,-0.00008490180447697639
1714412577137205500,5.55620556640625,-0.0017564882785081862,-0.002568827574700117,-0.0021054478466510772
1714412577147278800,5.56627880859375,-0.009255904123187065,-0.0003394610874354839,-0.001699205133318901
1714412577157351700,5.5763515625,0.009276946911215781,-0.022296733612567184,-0.009044891721010207
1714412577167425500,5.586425537109375,0.024344752183556556,-0.005931577439489774,-0.0020214228250086306
1714412577177498600,5.59649853515625,0.007834931409358977,-0.006150047062337398,-0.0030569033525884148
1714412577187571700,5.60657177734375,0.00779343035519123,-0.004640884608402848,-0.004444412188231945
1714412577197644800,5.616644775390625,-0.0053881227791309355,0.00032565632436890154,-0.028599925410002468
1714412577207718700,5.62671875,-0.000006429740786552429,-0.01173047754317522,-0.01165668165460229
1714412577217791700,5.636791748046875,0.0038829789131879806,0.008292397419852203,-0.0014664192907512187
1714412577227864800,5.64686474609375,0.013785364246368408,0.010408658921462484,-0.0023791502214968205
1714412577237938700,5.656938720703125,0.007629764226078987,-0.0043226809381274505,0.011954641687870025
1714412577248011500,5.667011474609375,0.017781740406155586,0.013738456364721058,0.02376636777371168
1714412577258084900,5.6770849609375,0.012385434320569037,-0.007528057417273521,0.00556523291170597
1714412577268157700,5.68715771484375,0.015493921729922294,-0.001507993410155177,0.011163491310179232
1714412577278231600,5.6972314453125,0.012477204257249831,-0.012606091333925724,0.02313420735001564
1714412577288305000,5.707304931640625,0.013354571613669394,-0.005567497934028506,0.002904489269852638
1714412577298377700,5.717377685546875,0.01049742861688137,-0.00040938451848924155,0.009126286394149065
1714412577308450800,5.727450927734375,0.003911620485782623,0.01064304763264954,0.003606938450783491
1714412577318524700,5.737524658203125,0.0061561845421791075,-0.0013714344836771488,-0.0180903679639101
1714412577328597800,5.74759765625,0.008253449082374572,0.004020706883445382,0.0005981120236217975
1714412577338670800,5.7576708984375,0.009446458259224891,-0.0048773967780172825,-0.0020671616628766057
1714412577348744700,5.76774462890625,0.011561258456110954,0.00540806958861649,-0.004881488431245088
1714412577358817500,5.777817626953125,0.007859481328725814,-0.011511427965015173,-0.01111000755727291
1714412577368891000,5.787890869140625,0.008781272348761558,0.0006557650615694001,0.01896715079843998
1714412577378963700,5.797963623046875,0.0195762226074934,0.004696784080681391,0.011502514006197452
1714412577389037600,5.80803759765625,0.019116203880310056,-0.00498728689327836,0.012764204505085945
1714412577399111000,5.81811083984375,0.010721300500631331,-0.01510740663036704,0.0004437982447445392
1714412577409183700,5.828183837890625,0.024928689551353453,-0.002960676436498761,-0.0012950082466006278
1714412577419256600,5.838256591796875,0.01505319222509861,-0.004078355354815722,0.015911270359158514
1714412577429330700,5.84833056640625,0.020447744745016098,0.01739150354613084,0.004950608144700527
1714412577439403800,5.85840380859375,0.011599836900830269,0.008417265908536501,0.0083623162843287
1714412577449476600,5.8684765625,0.024189269360899924,-0.0039558934523491185,-0.0007364975810050964
1714412577459550700,5.87855078125,-0.007507014629244804,0.005597308550402522,0.006576601911336183
1714412577469623800,5.888623779296875,0.007891630032658576,0.0023188714016228913,0.00995674586892128
1714412577479696600,5.898696533203125,0.0030821839243173597,-0.0024096184249967336,0.003953998322784901
1714412577489769700,5.908769775390625,0.01668868447244167,-0.017354231142508798,0.013154811257869005
1714412577499843600,5.918843505859375,0.020879121899604797,-0.014043430660665034,-0.0018134791627526282
1714412577509916700,5.928916748046875,0.0027817396730184553,-0.008464023093134165,0.02476326985657215
1714412577519989800,5.93898974609375,0.016555998003482817,0.0006997457671910524,0.02351853049248457
1714412577530062600,5.9490625,0.013243512454628943,0.010514672012627124,0.004340367291867733
1714412577540136400,5.959136474609375,0.0012625672817230223,-0.00861716782823205,0.006050970602035522
1714412577550209800,5.969209716796875,0.012954174119234085,0.0005283347230404615,0.0036830724269151685
1714412577560282600,5.97928271484375,0.015924714362621308,-0.001213613573461771,-0.007258738956600427
1714412577570356500,5.9893564453125,0.015011691170930862,0.0016273820061236618,-0.007613397613167762
1714412577580429800,5.999429931640625,0.010068389549851417,0.004403934047371149,0.0009479483745992183
1714412577590502700,6.009502685546875,-0.0011532616883516312,-0.0064181964792311185,0.006925561479479074
1714412577600575700,6.01957568359375,0.012177344527840613,0.008630319570749997,0.004454056799411773
1714412577610649600,6.029649658203125,0.008726911813020705,-0.0072349196895956985,0.0013664660476148127
1714412577620722700,6.03972265625,0.007088496956229209,-0.004997876785951667,0.011946604511886835
1714412577630795800,6.049795654296875,0.010839958444237708,-0.0028468407984822987,0.0057474576108157635
1714412577640868600,6.05986865234375,0.00949964975118637,0.004545685172197409,-0.003421206620335579
1714412577650942700,6.069942626953125,0.017126491367816923,-0.010426336142048239,0.009181231451779603
1714412577661015800,6.080015869140625,0.016236264529824258,-0.00491977461501956,0.016772124972194432
1714412577671088600,6.090088623046875,0.009799509480595587,0.004354254253325052,0.014099252501130104
1714412577681161700,6.10016162109375,0.013377367967367172,-0.0044682314552366735,0.005807809495925903
1714412577691235800,6.11023583984375,0.0038180969834327697,-0.007147533667087555,-0.010614332994818686
1714412577701308700,6.12030859375,0.020748188996315,-0.0035806303991703313,0.003473521329462528
1714412577711381800,6.1303818359375,0.009373393023014069,-0.0013233575582504273,0.00348608855009079
1714412577721455900,6.140455810546875,0.018050620475411415,-0.005756517700105906,0.0012483926258981227
1714412577731528700,6.15052880859375,0.006385901644825935,-0.005998432130622677,-0.007173398760706186
1714412577741601800,6.160601806640625,0.012229951497912407,-0.0028303234885213896,-0.007823971623927355
1714412577751674600,6.170674560546875,0.02644903098642826,-0.019998685803264377,0.022526742976158858
1714412577761748700,6.180748779296875,0.019595511829853057,0.0002533217405201867,0.00692965313270688
1714412577771821800,6.19082177734375,0.01601005455851555,-0.016494842400774357,0.020207798509299754
1714412577781894700,6.200894775390625,0.008520575585961341,-0.02225384431891143,-0.002940729627013206
1714412577791967700,6.2109677734375,-0.0056862289428710935,-0.014375439094007014,-0.00599310293495655
1714412577802041900,6.221041748046875,0.020917700344324112,-0.004082593138515949,0.0034758594170212743
1714412577812114700,6.23111474609375,0.041381811702251435,0.00890497179366648,0.00984057214334607
1714412577822187800,6.241187744140625,0.02025894417464733,0.0011571341458708048,-0.0034838965930044648
1714412577832262000,6.251261962890625,-0.004454056799411773,-0.01883746000416577,0.005035948340594768
1714412577842334700,6.261334716796875,-0.015665186643600462,-0.017953370646014807,0.009309095615148543
1714412577852407800,6.27140771484375,-0.018165186765789983,-0.0007637509141117334,-0.013416677064448594
1714412577862480600,6.281480712890625,0.02163490870296955,-0.0053818346022395415,-0.0017256547488272188
1714412577872554800,6.2915546875,0.021625556352734564,-0.011981310499086975,-0.003463730587810278
1714412577882627800,6.3016279296875,0.03134264824688435,-0.0014275485850870609,-0.008044336376339197
1714412577892700700,6.31170068359375,0.029082886621356007,-0.0013148043590364977,0.00013049451187252997
1714412577902773500,6.3217734375,0.018735095608234404,-0.026464954641344955,0.0059549628816545006
1714412577912848000,6.331847900390625,-0.01238660336434841,-0.01958053345642984,0.016410159792006013
1714412577922920700,6.341920654296875,-0.021944120782613753,-0.008058871791767888,0.006858925984054803
1714412577932993500,6.35199365234375,0.01922375590801239,-0.005642755127325654,0.02215688675045967
1714412577943068000,6.36206787109375,0.024191022926568984,0.007523162046447396,0.012100772160291672
1714412577953140700,6.372140625,0.013429974937438964,0.020899360970035193,-0.009822598095238208
1714412577963213600,6.382213623046875,0.012984569257497787,0.0036314883701503275,-0.00670242024809122
1714412577973286700,6.39228662109375,0.03213584445118904,-0.005223945193365216,0.007383388249576091
1714412577983360800,6.40236083984375,0.027356208959221837,0.00504676199555397,-0.006440116050094365
1714412577993433600,6.41243359375,0.028856676650047302,-0.0038656624522060154,-0.020837328584492207
1714412578003506700,6.422506591796875,0.016893267133831977,-0.0037657822743058203,-0.0033716683901846406
1714412578013579800,6.432579833984375,0.01900806733071804,0.00807750799357891,-0.00498728689327836
1714412578023653600,6.442653564453125,0.01703530595302582,-0.007792987397196702,0.004310410545021295
1714412578033726700,6.452726806640625,0.01851122372448444,-0.008246069493517279,0.022390987767279148
1714412578043799600,6.462799560546875,-0.0005120411753654479,0.007067600298672914,0.015483546466380357
1714412578053873700,6.472873779296875,0.0138379712164402,-0.004711392561346292,0.006603343787789344
1714412578063946800,6.48294677734375,0.02354629528224468,-0.00985861469011288,0.011055500891059637
1714412578074019600,6.49301953125,0.013496610432863234,-0.0035660904171643778,0.010151830049604177
1714412578084092700,6.5030927734375,0.0067430445194244385,-0.00611819061934948,0.005623685100674629
1714412578094166800,6.513166748046875,0.0040641806989908215,-0.003809982175636105,-0.0013508300870656966
1714412578104239600,6.523239501953125,0.02007540430128574,0.009441197562217712,-0.012734686149656772
1714412578114312700,6.533312744140625,0.0070984338283538815,-0.014495996733754872,-0.0020686229676008224
1714412578124385800,6.5433857421875,0.00460018727183342,-0.012030045011639595,0.011553951932489872
1714412578134459600,6.553459716796875,0.004317278677225113,-0.000246522106975317,0.019528876334428787
1714412578144532700,6.56353271484375,0.002070961055159569,-0.006828599344450049,0.0018846447028219699
1714412578154605600,6.57360546875,0.01373684892952442,-0.012045680972188711,0.016439239756017923
1714412578164679700,6.5836796875,0.03155892134606838,0.007213949966803193,0.015745558403432367
1714412578174752800,6.593752685546875,0.03216448602378368,0.013472571970149875,-0.002551876439899206
1714412578184825600,6.60382568359375,0.0171492877215147,0.004494754135981202,-0.0031336218506097793
1714412578194899000,6.61389892578125,0.016246201401948927,-0.0027121770015684885,-0.008190759109705686
1714412578204972800,6.623972900390625,-0.003039513826370239,-0.015217949766176752,-0.006955225965380668
1714412578215045600,6.634045654296875,0.005649988585710525,-0.01808605711497366,0.01826426322609186
1714412578225118700,6.64411865234375,0.03962123177051544,-0.006326134281605482,0.002833177599310875
1714412578235191800,6.65419189453125,0.016124036327004432,0.0069219082176685326,-0.00028188568130135534
1714412578245265700,6.664265625,0.01265022273659706,-0.0001493453428149223,-0.0041242403231561186
1714412578255338800,6.6743388671875,0.005897825866937637,-0.0005554373590974137,-0.0029592881970107554
1714412578265411600,6.68441162109375,-0.014760931280255317,0.008732464770972729,-0.00260725988894701
1714412578275485000,6.69448486328125,0.00036591070294380185,0.002958192218467593,-0.019455080445855855
1714412578285558800,6.704558837890625,0.02448796004652977,0.0013840017043054104,-0.009918459685146808
1714412578295631600,6.714631591796875,0.014041969355940818,-0.0010093916716752574,0.0011269582033157349
1714412578305705000,6.724705078125,0.011519172880053519,0.007189911504089832,0.022842530927062035
1714412578315778800,6.73477880859375,0.007349778240919112,-0.005234096694621257,-0.009909399595856665
1714412578325851600,6.7448515625,0.006423895567655563,-0.00155263626947999,0.00566547841578722
1714412578335924700,6.7549248046875,0.008804068702459335,-0.012263780702278017,0.02296498826295137
1714412578345997800,6.764997802734375,0.006433247917890549,-0.0030426556315273044,0.005764262615144252
1714412578356071700,6.77507177734375,-0.006757073044776916,-0.01427029821909964,-0.007264876436442137
1714412578366144800,6.785144775390625,0.003422375664114952,-0.008441884326562284,0.005133271235227585
1714412578376217900,6.7952177734375,0.015084756407141684,0.0032434389006346463,0.015815701030194758
1714412578386290700,6.805290771484375,0.017940730360150335,0.004850216510146856,-0.0002782324194908142
1714412578396364800,6.81536474609375,0.007886953857541084,-0.002922317187488079,0.018146628195792436
1714412578406437600,6.825437744140625,-0.0006394669473171234,0.0030469710470410064,-0.0028247020319104193
1714412578416510700,6.8355107421875,0.010914192724227905,0.003577200899645686,0.0001204115092754364
1714412578426584800,6.845584716796875,0.01662029541134834,-0.014122779507189988,-0.005686521203815936
1714412578436657700,6.85565771484375,0.012287234643101691,-0.00483041126455646,0.009088876993209124
1714412578446730500,6.86573046875,0.013654431343078612,-0.019642273581027984,0.004168225595355034
1714412578456803800,6.875803955078125,0.026526772397756575,-0.007251500931638293,-0.0018348142117261886
1714412578466877700,6.885877685546875,0.011118190863728523,0.0017588263660669326,0.016541677217185496
1714412578476950500,6.895950439453125,0.017260346880555152,0.007698664743825793,0.012760405112802981
1714412578487023900,6.90602392578125,0.007848959934711457,0.0072188453376293175,0.013559008144587277
1714412578497096700,6.9160966796875,0.02315583465993404,-0.0035468788266181943,0.0017692016296088694
1714412578507170600,6.926170654296875,0.028861352825164794,-0.005802841059863567,-0.007328735452890396
1714412578517243600,6.93624365234375,0.020046178206801414,-0.012054156539589167,0.005902940433472395
1714412578527316700,6.946316650390625,0.0056903205960989,-0.004715118888393044,-0.008674597103893756
1714412578537389800,6.956389892578125,0.0272445652782917,-0.0022724704100517555,0.007146218492835759
1714412578547463700,6.966463623046875,0.011842998006939887,0.0017903174828737974,0.006779284876585006
1714412578557536800,6.976536865234375,-0.003709375911951065,-0.00820880622304976,0.010308920307457446
1714412578567609900,6.98660986328125,0.007960019093751906,-0.00557224717438221,-0.0013474690861999988
1714412578577683700,6.99668359375,0.024276363122463226,-0.011140475760772824,-0.0030285540409386155
1714412578587756500,7.006756591796875,0.021742460730671882,-0.001993292709067464,0.013367138834297656
1714412578597830000,7.016829833984375,0.028477906465530393,0.008087956322357058,-0.0020556173555552957
1714412578607902700,7.02690283203125,0.021312252619862554,-0.0007062485732138156,0.006371726989001035
1714412578617976600,7.0369765625,0.016838322076201437,-0.008174830888211727,-0.002846767733246088
1714412578628049700,7.047049560546875,0.024016250881552695,-0.0005147445891052484,0.010049830979853867
1714412578638122800,7.057122802734375,0.01938274586200714,0.0012749153066426515,0.00837035346031189
1714412578648195800,7.06719580078125,0.004842179334163666,-0.006222016320005059,0.0010502397052943706
1714412578658269700,7.077269775390625,0.002896305963397026,-0.01109137592203915,0.011228373239934444
1714412578668342800,7.0873427734375,0.01054360584616661,-0.017209274280443786,0.008733926075696945
1714412578678415600,7.09741552734375,0.01653846234679222,0.005310312869143672,0.004794686930626631
1714412578688489700,7.10748974609375,0.012805705559253693,-0.004615896297618747,0.011621171949803829
1714412578698562600,7.1175625,0.018780688315629956,-0.00660947670105379,0.0009172609753906727
1714412578708635600,7.1276357421875,0.019845687198638915,0.0004144990850239992,-0.009214403069019318
1714412578718708500,7.13770849609375,0.011780454164743423,0.007239376669004559,-0.00422112482637167
1714412578728782600,7.147782470703125,0.00313011471927166,-0.004137538196146488,0.012061170802265405
1714412578738855700,7.157855712890625,-0.0035690906584262844,-0.003936097339913249,-0.012840484611690043
1714412578748928500,7.167928466796875,0.01232347500026226,-0.0027704830600647256,-0.02112272139713168
1714412578759001600,7.178001708984375,0.02116261501610279,-0.010902136960253118,-0.017006079858541488
1714412578769075700,7.18807568359375,0.011296470040082931,-0.00642272652387619,-0.008385258768498898
1714412578779148500,7.1981484375,-0.0011176058530807495,0.0017244857050478458,-0.0003388765655457973
1714412578789221600,7.2082216796875,0.016100655451416968,-0.007346120412531308,-0.0060875032201409334
1714412578799294700,7.218294677734375,0.01161503446996212,-0.004789202471333556,-0.008055734553188086
1714412578809368600,7.22836865234375,0.020415596041083336,-0.0024648511769948525,0.0025916239283978936
1714412578819441700,7.238441650390625,0.015907763227820396,-0.0001146347890375182,-0.01959215082898736
1714412578829514500,7.248514404296875,0.007543839508295059,-0.008272007652372121,0.003654723115265369
1714412578839588600,7.258588623046875,0.01325111123919487,-0.005916676697880029,-0.004860737904161214
1714412578849661700,7.26866162109375,0.02208791316747665,-0.0004035392995923757,0.007210077509284019
1714412578859734500,7.278734619140625,0.016569442006945607,0.0011501929484307766,-0.005321487283706665
1714412578869807600,7.2888076171875,0.017191373297572136,0.009248232273384928,-0.020428163261711596
1714412578879881700,7.2988818359375,-0.001654196947813034,-0.008396213987353258,-0.0046070554040372365
1714412578889954600,7.30895458984375,0.037977556216716765,-0.0007012070719152689,0.01094035007879138
1714412578900027400,7.31902734375,0.02883621838390827,0.0014632044203579425,0.002930938885360956
1714412578910100700,7.329100830078125,-0.011849427747726439,0.007497589213773608,0.018393004172295332
1714412578920174600,7.339174560546875,-0.010195230799913406,-0.007468216988816857,0.016549422132223844
1714412578930247400,7.349247314453125,-0.008205518287420272,0.005860270335525274,-0.009466624264419079
1714412578940320500,7.359320556640625,0.021000702452659607,0.014914660537242889,-0.009935703080892562
1714412578950393600,7.3693935546875,0.041191257566213606,0.0036038697108626365,-0.027517829261720177
1714412578960467500,7.379467529296875,0.032820904105901716,-0.00828691296055913,-0.02397767243683338
1714412578970540500,7.38954052734375,0.014392682489752768,-0.0018047843996435403,-0.011566080761700868
1714412578980613600,7.399613525390625,0.01571545552611351,0.004210457301884889,-0.01291398823931813
1714412578990687500,7.4096875,0.008070493730902671,-0.013174392741173505,-0.014475246206670999
1714412579000760600,7.419760498046875,-0.010493336963653564,-0.018170301332324744,0.004430529793351888
1714412579010833400,7.42983349609375,-0.007616320222616196,-0.0007283873397856951,0.021729601249098777
1714412579020906800,7.43990673828125,0.03952946183383465,0.0005458018810721114,0.0008716682679951191
1714412579030980600,7.449980712890625,0.019775544571876524,-0.003790186063200235,-0.01183963700607419
1714412579041053400,7.460053466796875,0.0015448913544416428,0.011960633037239312,-0.011547229930758476
1714412579051126800,7.470126708984375,0.0343248789280653,-0.0009778274896321817,-0.005317395630478858
1714412579061199600,7.48019970703125,0.04316694155335426,0.01861329585947096,-0.008690525325387716
1714412579071273500,7.4902734375,0.024458149430155753,0.013539426661282777,-0.014655863470584153
1714412579081346600,7.5003466796875,0.02177694752216339,0.005203267731517553,0.0006743921302258968
1714412579091419600,7.510419677734375,0.02373801846206188,0.010431377643346786,0.001621171461045742
1714412579101492700,7.52049267578125,0.02030862853527069,0.013727423514053224,0.010827537354081868
1714412579111566600,7.530566650390625,0.014023849177360534,0.004506809899955988,0.004991232416033745
1714412579121639400,7.540639404296875,0.014468670335412024,-0.0230083890132606,0.008164601755142211
1714412579131712800,7.550712646484375,0.017787585625052452,0.0008752484645694493,0.0012641747169196604
1714412579141786600,7.56078662109375,0.030351299121975896,0.00840484481838066,-0.023539719410985708
1714412579151859500,7.570859375,0.013429390415549277,-0.004985825588554144,-0.0005628945797681808
1714412579161932800,7.580932861328125,0.005183540117740631,-0.004181669598817825,-0.0024088147073984146
1714412579172005600,7.591005615234375,0.0005652326673269272,-0.007039543247967958,0.006149462540447711
1714412579182079500,7.60107958984375,0.020480477970838545,-0.003943837688374333,-0.0029084347926080227
1714412579192152600,7.611152587890625,0.020632453662157057,-0.005628137513506226,-0.002472965984791517
1714412579202225700,7.6212255859375,0.014798925203084946,-0.010373797670635393,-0.0042854222342371935
1714412579212298800,7.631298828125,0.008366261807084083,-0.004600109640019946,0.007826748102903366
1714412579222372600,7.64137255859375,0.005700257468223571,0.01257628528412897,-0.017034283039718864
1714412579232445700,7.65144580078125,0.019475684842467308,-0.0009470715917646884,-0.001371288353204727
1714412579242518800,7.661518798828125,0.01647007328569889,-0.002599003517255187,-0.006976268753409385
1714412579252592600,7.671592529296875,0.015279402196407317,0.0018502309765666722,-0.015239946968853472
1714412579262665500,7.68166552734375,0.028905776488780975,0.00040047512624878434,-0.005117635274678468
1714412579272738800,7.69173876953125,0.0016910218268632888,-0.0007949452033964916,-0.010920622465014457
1714412579282811600,7.701811767578125,-0.003964227455854416,-0.004431991098076105,-0.010969137781858443
1714412579292885500,7.711885498046875,0.0020095862567424774,0.009596899580582977,0.011703589536249637
1714412579302958600,7.72195849609375,0.025195816054940222,-0.01864244888871908,0.014151274949312209
1714412579313031700,7.73203173828125,0.01695113480091095,-0.019543197120726108,-0.007005494847893715
1714412579323104500,7.7421044921875,0.027100188371539113,-0.011310863891616464,-0.008639525790512562
1714412579333178600,7.7521787109375,0.015550035831332206,-0.001683057716116309,-0.0008279752567410468
1714412579343251700,7.762251708984375,0.013767244067788124,-0.004743102873861789,-0.021709873635321855
1714412579353324500,7.772324462890625,0.006153846454620361,-0.007282704354077577,-0.014939210456609725
1714412579363397600,7.782397705078125,0.0021697452545166016,0.015964977874350732,-0.02396539747714996
1714412579373471500,7.792471435546875,0.015361819782853125,0.005527677380293607,-0.015284516762942076
1714412579383544600,7.802544677734375,0.011949380990862846,0.0010257674177410081,0.005788374143093824
1714412579393617700,7.81261767578125,0.004648118066787719,-0.009075213794037699,0.018315262760967014
1714412579403690500,7.8226904296875,0.017687632381916046,-0.007347220957651734,0.003825841898471117
1714412579413764600,7.8327646484375,0.030991935113072393,-0.004205995755898766,0.009597703298181295
1714412579423837700,7.842837646484375,0.010168927314877509,0.0054810617595911024,0.012286503990739583
1714412579433910500,7.85291064453125,0.012099018594622611,0.0034482407577335833,0.011194178709387778
1714412579443984400,7.862984375,-0.004367547559738159,-0.0151831707137404,0.02097016118392348
1714412579454057700,7.8730576171875,0.0062567223072052,-0.0014197306048125027,0.000024696049839258194
1714412579464130600,7.883130615234375,0.01853577364385128,-0.006716814099624753,0.001616203024983406
1714412579474203600,7.89320361328125,0.014092238238453864,-0.009978733938443474,-0.0007579787604510784
1714412579484277500,7.903277587890625,0.015597966626286507,-0.00418115814216435,-0.013087152849137782
1714412579494350600,7.9133505859375,0.008729249900579453,-0.0025536985042272134,-0.0178149120233953
1714412579504423700,7.923423583984375,0.019862638333439826,-0.016356525342050007,-0.013097966504096984
1714412579514496500,7.93349658203125,0.03231412362754345,-0.018677954026940276,-0.008051058378070592
1714412579524570600,7.943570556640625,0.011363105535507201,-0.018489158023148773,-0.0028001521125435827
1714412579534643700,7.953643798828125,0.012688216659426689,-0.019075871869921684,0.019481822322309016
1714412579544716500,7.963716552734375,0.029147184029221535,-0.002252455101907253,-0.006546352903544902
1714412579554789600,7.97378955078125,0.02392623451054096,-0.011785860992223023,-0.008289981700479983
1714412579564863700,7.98386376953125,0.013283259943127632,0.001197100830078125,0.005888473516702652
1714412579574936600,7.9939365234375,0.007592354825139046,0.010162862900272011,-0.00021305822879076004
1714412579585009700,8.004009765625,0.009528291323781014,0.00952894891090691,0.01002338136434555
1714412579595083800,8.014083740234375,-0.004541735082864761,0.009012674518418497,0.01319514326825738
1714412579605156600,8.024156494140625,0.012988076388835906,0.00960852151971776,-0.006845774241536855
1714412579615229700,8.034229736328125,0.013150573474168776,0.002483414313569665,-0.0012381634928286076
1714412579625302500,8.044302490234376,0.005831190371513366,0.002418171624210663,-0.005505319418013095
1714412579635376600,8.054376708984375,0.011671733093261718,0.002142784182354808,0.006880845554918051
1714412579645449700,8.06444970703125,0.02574702019691467,0.007988660666346549,-0.0034960254222154616
1714412579655522600,8.0745224609375,0.01258884793817997,-0.009560659223422408,0.008108049262315035
1714412579665595600,8.084595703125,0.0233668470621109,0.0004132569760084152,0.002248363448679447
1714412579675669800,8.094669677734375,0.0015226795226335524,-0.0062142668383894486,-0.008988193097710609
1714412579685742600,8.10474267578125,0.020966215661168096,-0.014211042312532663,0.001249561669677496
1714412579695815700,8.114815673828126,0.01721241608560085,0.006965966555103659,-0.001812310118973255
1714412579705888800,8.124888671875,0.02304185289144516,-0.0024807063332526014,-0.0023642449133098125
1714412579715962600,8.134962646484375,0.016313421419262886,0.00012917933762073515,-0.0029950901627540587
1714412579726035700,8.14503564453125,0.006559504646062851,-0.005855594160407781,-0.00027530981004238127
1714412579736108800,8.15510888671875,0.016601006188988684,0.006394084951281547,-0.011140402695536613
1714412579746182700,8.1651826171875,0.0296235693693161,-0.014576076232641934,0.001108691894263029
1714412579756255700,8.175255859375,0.015263035583496093,-0.014163403778523206,-0.0014634966813027858
1714412579766328600,8.18532861328125,0.008523498195409774,-0.0059074704781174655,-0.0018752923525869845
1714412579776401700,8.195401611328125,0.0029869068562984463,-0.004448723037168384,-0.011002747790515422
1714412579786475800,8.205475830078125,0.015416180318593977,-0.007266483871638775,-0.0007315291449427605
1714412579796548600,8.215548583984376,0.0016617957323789595,-0.01586743121743202,-0.0005108721315860748
1714412579806621700,8.22562158203125,-0.005837035590410232,-0.014643296249955891,0.010522709188610315
1714412579816694800,8.23569482421875,0.0039034371793270108,-0.004473053760826588,0.002807458636164665
1714412579826768600,8.2457685546875,0.008843231669068335,-0.007000161085650324,0.005939180790632963
1714412579836841500,8.255841552734376,0.012313538128137588,-0.0002539016958326101,0.008750000427663326
1714412579846914800,8.265914794921875,0.007542670464515686,0.011995339024439453,-0.005125964711606502
1714412579856987600,8.275987548828125,0.017458499801158905,-0.011792948320135473,-0.023633681304752824
1714412579867061500,8.2860615234375,0.016583470532298087,-0.015066051706671715,-0.008960136047005653
1714412579877134800,8.296134765625,0.028428222104907034,-0.01588101678478997,-0.015535568914562464
1714412579887207700,8.306207763671875,0.029458149674534796,-0.0037651201206026596,0.009867752411216497
1714412579897281500,8.316281494140625,0.037999183526635165,0.01123071132749319,0.0020087094739079476
1714412579907354600,8.326354736328126,-0.001672317126393318,0.006569587648659944,0.011388239976763725
1714412579917427700,8.336427734375,-0.011544307321310043,-0.012396832497417926,0.010918138246983289
1714412579927500800,8.346500732421875,-0.005384615647792816,-0.009927885100618004,0.00044642859324812886
1714412579937574700,8.35657470703125,0.007200725159049033,0.007213803836330771,-0.003999737160652875
1714412579947647500,8.3666474609375,0.0386380659520626,-0.011925415593385696,-0.003786971192806959
1714412579957720800,8.376720947265625,0.04223579818308353,-0.019514409417659043,-0.0102586514249444
1714412579967793700,8.386793701171875,0.02875087818801403,-0.007497730777668766,-0.012090689157694578
1714412579977867500,8.396867431640626,0.03365034066736698,-0.002513882517069578,-0.005269464835524559
1714412579987940900,8.40694091796875,0.028856092128157613,-0.017901567393541335,0.00509644635617733
1714412579998013700,8.417013671875,0.003700608083605766,-0.013514141522976569,0.0029547581523656843
1714412580008086800,8.427086669921875,-0.0054430678367614746,0.00047777357958257195,0.004696341122686863
1714412580018160600,8.43716064453125,0.005465279668569564,-0.017592935269209554,0.01436886322274804
1714412580028233700,8.447233642578125,0.021628478962182996,-0.019148498714715242,-0.000310527253895998
1714412580038306800,8.457306884765625,0.008178045758605004,-0.002497369773685932,0.007961772659420966
1714412580048379600,8.467379638671876,0.02524257780611515,-0.0009692103583365679,-0.009883826763182878
1714412580058453800,8.477453857421875,0.023308394873142242,0.0004984510414302349,-0.01787730973511934
1714412580068526800,8.48752685546875,0.01553074660897255,0.00670687722750008,-0.018205518776178358
1714412580078599700,8.497599609375,0.011798574343323707,0.012672653764113783,0.009562339723855257
1714412580088673500,8.507673583984374,0.02034486889243126,-0.006625624118256382,-0.004009089510887861
1714412580098747000,8.517746826171875,0.008088029387593268,0.003028115649521351,0.014756255105137825
1714412580108819700,8.52781982421875,-0.0022398878812789915,-0.0023081308118999004,0.008785802393406629
1714412580118892500,8.537892578125,0.010924129596352576,-0.009960248433682135,0.006869885769486427
1714412580128966700,8.547966552734374,0.021836568754911422,0.009274462693184613,0.0072400342561304565
1714412580139039700,8.558039794921875,0.024067688807845114,0.0017019861788721755,0.0028352234259247776
1714412580149112600,8.568112548828125,0.028094460105895995,-0.00782265644967556,-0.010554127240180969
1714412580159185700,8.578185546875,0.013155834171175955,-0.005033537187799811,-0.002025076086819172
1714412580169259800,8.588259765625,0.01195522620975971,-0.023454379215091466,-0.0014043138399720192
1714412580179332600,8.59833251953125,-0.006164367848634719,-0.011302972846105694,-0.005813508584350347
1714412580189405700,8.60840576171875,0.020512626674771307,-0.0021693068630993365,-0.01071764723882079
1714412580199478500,8.618478515625,0.008557984986901282,-0.0016114492180524392,0.0017471359282732008
1714412580209552600,8.628552734375,0.006469488275051116,-0.021297931833565233,0.004994739547371864
1714412580219625700,8.638625732421875,0.007386018598079681,0.007555968337506056,0.0038293490298092364
1714412580229698600,8.648698486328126,0.022193711629509925,-0.006043883274123072,0.0017808920674026011
1714412580239771600,8.658771728515624,0.027128829944133757,-0.005758705090614966,-0.016154139204323292
1714412580249845800,8.668845703125,0.019921090522408483,0.017572047744807785,-0.012410714892297982
1714412580259918600,8.678918701171876,0.023487843093276024,0.00035356267802417275,-0.012114070033282041
1714412580269991700,8.68899169921875,0.011819617131352425,-0.017729932587104848,-0.010642243915051221
1714412580280065800,8.699065673828125,0.0010457096606492995,-0.005836378003284335,0.007906827601790428
1714412580290138600,8.709138671875,0.004160626810789108,-0.011848916291072964,0.005232932217419147
1714412580300211700,8.719211669921876,0.017193711385130882,-0.015644070790335536,0.01756181404516101
1714412580310284500,8.729284423828124,0.03828676829636097,-0.008127918439987116,0.006083703827857971
1714412580320358700,8.739358642578125,0.030635961282253262,0.006747501498833298,-0.02492109076678753
1714412580330431700,8.749431640625,0.014584405669569969,-0.005391995236650109,0.0036199440628290175
1714412580340504600,8.759504638671874,-0.004305588239431381,-0.006405483128130436,-0.02444455929622054
1714412580350577700,8.76957763671875,-0.0040068975538015365,0.004810619718697853,-0.014566577751934527
1714412580360651800,8.77965185546875,0.01922200234234333,0.003580927226692438,-0.005061959564685821
1714412580370724600,8.789724609375,0.015950433325767517,-0.00012530688010156153,-0.00982289035618305
1714412580380797700,8.799797607421874,0.012511106526851654,-0.001729746402055025,-0.0089428926512599
1714412580390870500,8.80987060546875,0.035384032592177386,-0.001329202777147293,0.001813917554169893
1714412580400944600,8.819944580078126,0.030694413471221923,-0.019721695492789147,0.010212912587076425
1714412580411017700,8.830017822265624,0.006427402698993683,-0.005132248321920633,0.012466975124180317
1714412580421090600,8.840090576171875,0.0022281974434852597,0.0007798298326553776,0.01926277274414897
1714412580431164000,8.850163818359375,0.006551321339607239,-0.0022395225550979375,0.023553017283976078
1714412580441237800,8.86023779296875,0.010728314763307571,-0.0033771482829004526,0.017050211261212825
1714412580451310600,8.870310546875,-0.006022913551330566,0.004608078317344188,-0.01592500662356615
1714412580461383700,8.8803837890625,0.014329554125666617,-0.024628386863949706,0.00022474866658449172
1714412580471457800,8.890457763671876,0.022857728496193885,-0.005484861151874065,-0.01967062289267778
1714412580481530600,8.900530517578124,0.0038631051689386364,-0.009799144154414534,-0.01419043791592121
1714412580491603700,8.910603759765625,0.003004442512989044,-0.0008166501451283693,-0.016230273180454967
1714412580501676800,8.9206767578125,0.025617840859293937,-0.0016052432395517826,0.002212415352463722
1714412580511750700,8.930750732421876,0.018599486529827118,-0.006058934712782502,0.019028233335912227
1714412580521823700,8.94082373046875,0.01142331129014492,-0.004567011088016442,0.005373655862361193
1714412580531896600,8.950896484375,0.025196400576829907,-0.015597450603055767,-0.008430413084477185
1714412580541969700,8.9609697265625,0.013826280778646468,0.0006013314605923369,-0.008151596143096684
1714412580552043800,8.971043701171874,0.007834346887469291,0.006451518793520517,0.006102993050217628
1714412580562116600,8.98111669921875,0.015620178458094595,-0.01704977286979556,-0.008590718212723732
1714412580572189700,8.991189697265625,0.026379472881555555,-0.011142156261205672,-0.0043140638068318365
1714412580582262800,9.0012626953125,0.017829671201109884,-0.008010214911028742,-0.012119915252178906
1714412580592336600,9.011336669921874,0.010661679267883301,-0.005827824804070405,-0.008317015837877988
1714412580602409700,9.02140966796875,0.022035890719294546,0.002679594472795725,-0.01595715532749891
1714412580612482800,9.03148291015625,0.021121113961935042,-0.0006345715764909983,-0.0035790275305509567
1714412580622556700,9.041556640625,0.01122983454465866,0.0032797523230314253,-0.004083762182295322
1714412580632629800,9.051629638671875,0.013174538871645927,0.00217405610345304,-0.02099208075478673
1714412580642702600,9.06170263671875,0.016315174984931943,-0.0199405213086633,-0.014095891500264406
1714412580652775700,9.071775634765626,0.007929039433598517,0.006522460571303963,-0.016746552139520643
1714412580662849800,9.081849853515624,0.020775077003240584,-0.00451323964074254,-0.017650661372393368
1714412580672922600,9.091922607421875,0.00699263536632061,-0.013530439637228846,-0.011116729559004307
1714412580682995700,9.10199560546875,0.011763503029942512,-0.0038896278496831655,-0.004421177443116903
1714412580693068800,9.11206884765625,0.025667525219917296,-0.004163695550709962,0.00897767170369625
1714412580703142700,9.122142578125,0.028499533775448796,-0.005616666271421127,-0.013097528112679719
1714412580713215500,9.132215576171875,0.02129939313828945,-0.003357859060540795,-0.011648352217674254
1714412580723288800,9.142288818359376,0.013329437172412872,-0.001324234341084957,-0.00901055105999112
1714412580733361700,9.152361572265624,0.019578560695052146,-0.011382833149284123,-0.008636895442008971
1714412580743435500,9.162435546875,0.01101063883602619,-0.011636954040825367,-0.002860357867181301
1714412580753508900,9.1725087890625,0.01787175677716732,-0.00504237808138132,0.004309387631714344
1714412580763581700,9.182581787109376,-0.009834580793976783,0.01278320146650076,0.009245090468227862
1714412580773654800,9.19265478515625,-0.004601940837502479,-0.0018303572323173283,0.010773176818341015
1714412580783728600,9.202728759765625,0.011712649625539778,-0.010239508333057165,0.011640753433108329
1714412580793801700,9.2128017578125,-0.003237666746973991,-0.015262597192078828,-0.010886427934467792
1714412580803874800,9.222874755859374,0.0033469723403453827,-0.0031302608497440812,-0.0047542087897658345
1714412580813947600,9.23294775390625,0.030438977405428884,-0.004722206216305494,-0.00839621855393052
1714412580824021500,9.243021484375,0.01984159554541111,-0.008304010225832463,-0.02382671965882182
1714412580834094800,9.2530947265625,0.032518121767044064,-0.01054564710620325,0.0020301906533539294
1714412580844167700,9.263167724609374,0.04579845910072326,0.0036537002019584176,0.021864333544671533
1714412580854241500,9.273241455078125,0.033680151283740994,0.017710794061794877,0.00837035346031189
1714412580864315000,9.28331494140625,-0.00360416197180748,-0.005683160202950239,0.002229366487264633
1714412580874387700,9.2933876953125,-0.016635492980480192,-0.010718085630238055,-0.0050192894667387
1714412580884460800,9.303460693359375,0.001491115340590477,0.013488646322116256,-0.017571604786813258
1714412580894534700,9.31353466796875,0.019301497319340704,-0.00492364250596147,-0.005623538970202208
1714412580904607700,9.323607666015626,0.04236439299881458,-0.027164924170821905,-0.0054500820994377135
1714412580914680800,9.333680908203124,0.028279169023036954,-0.016485051659122108,-0.01640519135594368
1714412580924753700,9.343753662109375,0.02435293549001217,-0.00551196835450828,0.003118424281477928
1714412580934827800,9.353827880859376,0.02792202614843845,-0.03065978054925799,0.006999941889941692
1714412580944900900,9.36390087890625,0.01909165396094322,-0.021477886943775226,-0.012881839535385369
1714412580954973700,9.3739736328125,0.021324527579545973,-0.02229797572158277,0.0005051730431616306
1714412580965046500,9.384046630859375,-0.004885433954000473,-0.010125745760276913,0.007093757653236389
1714412580975121000,9.394120849609376,0.005139116454124451,0.00126234808601439,0.01787979395315051
1714412580985193700,9.40419384765625,0.0025812486648559567,0.012371337296557611,-0.005375409428030252
1714412580995266600,9.4142666015625,0.0284732302904129,0.002687047126889229,-0.023065818288922308
1714412581005339600,9.424339599609375,0.028655016598105428,-0.002829378207027912,-0.03448416114300489
1714412581015413800,9.434413818359374,0.006053893211483955,-0.0045878392469137904,-0.008113456089794635
1714412581025486600,9.444486572265625,-0.005464695146679878,0.006994973453879356,-0.0018519114769995212
1714412581035559700,9.4545595703125,0.030900749698281285,-0.013677739153429866,-0.003824088332802057
1714412581045633800,9.4646337890625,0.0225128605812788,-0.009740326639264822,0.001917962450534105
1714412581055706600,9.47470654296875,-0.0017179098337888716,-0.0008782441392540931,0.0005034194774925708
1714412581065779700,9.48477978515625,-0.0000789104551076889,0.003512245904654264,-0.00005932897180318832
1714412581075852500,9.4948525390625,0.017253332617878914,-0.00018207856863737106,-0.004089022879302502
1714412581085926700,9.5049267578125,0.024727029499411583,0.002220160267502069,0.008383066811412572
1714412581095999700,9.514999755859375,0.02052957780957222,-0.008446195175498723,-0.00638809360191226
1714412581106072600,9.525072509765625,0.018290274450182914,-0.009439443996548651,-0.019132132101804016
1714412581116145700,9.535145751953126,0.013615852898359298,-0.006168970958516001,-0.013071078497171401
1714412581126219800,9.5452197265625,0.004934533792734146,-0.007506503172591328,-0.0036301731958985326
1714412581136292600,9.555292724609375,0.01601005455851555,-0.009527414540946483,0.006526917550712824
1714412581146365700,9.56536572265625,0.025740005934238433,-0.015491579075786284,-0.01698679063618183
1714412581156438500,9.5754384765625,0.020061375775933265,-0.009518422950315289,0.00002586509361863136
1714412581166512600,9.5855126953125,-0.0004489128112792969,-0.012419774981588125,0.01489975522905588
1714412581176585700,9.595585693359375,0.02455927171707153,-0.0026321751344949005,-0.007514321152865887
1714412581186658600,9.605658447265625,0.0075146134138107295,-0.01699328887562733,0.005574000740051269
1714412581196732000,9.61573193359375,0.030236732831597328,-0.011438065901282242,0.003616436931490898
1714412581206805800,9.6258056640625,0.017788170146942138,0.0011236702676862477,-0.018359832555055616
1714412581216878600,9.635878662109375,0.018197919991612434,0.007143368948623538,-0.019610417138040064
1714412581226951700,9.64595166015625,0.010250760379433631,-0.005837323284777813,0.002344078908115625
1714412581237024800,9.656024658203124,0.005494505763053894,-0.0023100305080413818,0.007229951253533363
1714412581247098600,9.6660986328125,0.005054360780119896,-0.007845525868609548,0.004034662343561649
1714412581257171700,9.676171630859375,0.01940846482515335,0.00874948897100985,0.008742693904042243
1714412581267244500,9.68624462890625,0.034949732828140255,-0.008353986847400664,0.0009399111986160278
1714412581277318000,9.69631787109375,0.011896189498901366,0.0018860329423099754,-0.0006489654280245304
1714412581287391700,9.706391845703125,0.016071429356932638,-0.0008631927005946636,-0.015676000298559666
1714412581297464600,9.716464599609376,0.016057400831580162,0.0051397740412503475,-0.02112432883232832
1714412581307538000,9.726537841796874,0.0015513210952281952,0.0042281390890479085,-0.02088379807472229
1714412581317611800,9.73661181640625,0.012830840000510215,0.012337581157428211,-0.03695011286512017
1714412581327684600,9.7466845703125,0.010290507867932319,0.011633519974723458,-0.007490940277278423
1714412581337757700,9.7567578125,0.01552548591196537,0.010732630178821272,0.01287029522806406
1714412581347830800,9.766830810546875,0.03272913416922092,0.0011691899098455905,0.013045505664497614
1714412581357904600,9.776904541015625,0.026140987950563428,0.005283717123162932,-0.0014433306761085986
1714412581367977700,9.786977783203126,0.001572363883256912,-0.007618069221707992,0.004414163180440664
1714412581378050800,9.79705078125,0.005579261437058449,-0.009863222366571426,-0.006752104608714581
1714412581388123600,9.80712353515625,0.0022650223225355146,-0.011810552475485018,0.015087386755645275
1714412581398197800,9.81719775390625,0.001174304476380348,-0.015714067286625503,0.01610445484369993
1714412581408270600,9.8272705078125,0.015524901390075682,-0.004269201751798391,-0.0008599778302013874
1714412581418343700,9.83734375,0.018207856863737104,-0.0024521378258941695,-0.01381225225329399
1714412581428416800,9.847416748046875,0.012835516175627708,-0.003531530560436658,-0.015853402692079542
1714412581438490600,9.85749072265625,0.0046188919723033905,0.0003420960025163367,-0.02072495425119996
1714412581448563500,9.8675634765625,0.013445172506570815,-0.0006418781001120805,-0.009490589661896228
1714412581458636800,9.87763671875,0.03200549606978893,0.002915741316229105,-0.0072777359180152415
1714412581468710700,9.887710693359375,0.018555647388100623,-0.002982522942125797,-0.016364128693193196
1714412581478783500,9.897783447265626,0.018127192842960358,-0.013396145733073354,-0.0036195056714117524
1714412581488856800,9.90785693359375,0.011851765835285187,-0.013304594992101192,0.0048522623367607595
1714412581498929700,9.9179296875,0.006759411132335662,-0.012027702357503585,0.005180471377819776
1714412581509003500,9.92800341796875,-0.0017594108879566191,-0.00490121604502201,-0.010299129565805197
1714412581519076600,9.93807666015625,0.028766660279035565,-0.00844356026041787,0.0004753624267876148
1714412581529149700,9.948149658203125,0.011081365984678267,0.0000065804378362372516,-0.012813304343819618
1714412581539222800,9.958222900390625,0.0055360068172216415,0.0008152664722176268,-0.01754939295500517
1714412581549296600,9.968296630859374,0.006709142249822616,-0.0026418882443336768,-0.013956336899101734
1714412581559369700,9.97836962890625,0.0035509704798460003,-0.002770706822350621,0.0006543722555041313
1714412581569442800,9.98844287109375,0.011792144602537155,-0.0038419893156737086,0.0005795534536242484
1714412581579515600,9.998515625,0.016265490624308584,-0.0039312019690871235,-0.010098492427170275
1714412581589589500,10.008589599609374,0.011036942321062088,-0.005560045279935002,-0.00027706337571144104
1714412581599662800,10.018662841796875,0.021207623201608655,-0.007312003513798117,-0.0005491583153605461
1714412581609735700,10.028735595703125,0.024193945536017416,-0.005955469771730713,-0.009035100979357957
1714412581619808800,10.038808837890626,0.019538813206553457,-0.009470642852410673,-0.009985533571988343
1714412581629882600,10.048882568359375,0.008743862947821616,-0.0018846447028219699,-0.007912088298797608
1714412581639955700,10.058955810546875,0.01397474933862686,-0.004690934295207262,-0.020293138705193996
1714412581650028800,10.06902880859375,0.00933364553451538,-0.012013751463964582,-0.011600275292247534
1714412581660101600,10.0791015625,0.013346388307213783,-0.007918732668715529,-0.00858428847193718
1714412581670175700,10.08917578125,0.02066284880042076,-0.03254091812074184,-0.018066840957850216
1714412581680249000,10.0992490234375,0.02409574585855007,-0.016873904846236108,-0.02040799725651741
1714412581690322000,10.109322021484376,0.019618308183550835,0.0030904402960091827,0.002866933738440275
1714412581700394800,10.119394775390624,0.013016133439540863,-0.0006611673224717378,-0.005397182868421078
1714412581710469000,10.12946923828125,0.00028057050704956055,-0.016668226206302643,-0.001855272477865219
1714412581720542000,10.1395419921875,0.031983868759870526,-0.005333100089686922,-0.0054724400617182254
1714412581730614800,10.14961474609375,-0.0004594342052936554,-0.0060157531581819055,0.009012743017077446
1714412581740689200,10.159689208984375,0.00627893413901329,-0.0022617343869060277,0.003296703457832336
1714412581750762000,10.169761962890625,0.002830254989862442,-0.0021383957016048952,-0.009237491683661937
1714412581760834800,10.179834716796876,0.02962123128175735,-0.011874196862801908,-0.007778086655586957
1714412581770908000,10.189907958984374,0.02409749942421913,0.0021408114209771154,-0.015339169559627771
1714412581780982000,10.19998193359375,0.012281389424204826,-0.0070383742041885845,0.001986205381155014
1714412581791054800,10.210054931640625,0.01648176372349262,-0.010816358372941613,0.01254632397070527
1714412581801128000,10.2201279296875,0.010351298144459724,0.007944602328911423,-0.0003489595681428909
1714412581811200800,10.23020068359375,0.01917407154738903,-0.004187222556769847,-0.021716157245635984
1714412581821275000,10.24027490234375,0.014064181187748909,0.00462597930021584,-0.0048149990662932395
1714412581831348000,10.250347900390626,0.02977203792929649,-0.0016767010405659675,0.0025442776553332804
1714412581841420800,10.2604208984375,0.010047931283712386,0.004878273560851812,0.00895195274055004
1714412581851494000,10.270493896484375,0.021718495333194733,-0.00007379588857293128,-0.00032236382216215134
1714412581861568000,10.280568115234376,0.011243863070011139,-0.000663578475266695,0.001916355015337467
1714412581871640800,10.290640869140624,0.00003682487905025482,-0.004278261841088533,-0.006260667829960584
1714412581881714000,10.3007138671875,0.011566519153118134,0.0006844020675867796,-0.00016907295659184454
1714412581891787000,10.310787109375,0.018013211074471472,-0.005777555921557359,-0.006832914759963751
1714412581901860900,10.32086083984375,0.023853753796219825,-0.016038038543984293,-0.011050824715942143
1714412581911934000,10.330933837890624,0.03340016529858112,0.003683369254437275,-0.016692629995197057
1714412581922006800,10.3410068359375,0.0260813667178154,0.012321940630301833,-0.017537410256266595
1714412581932080000,10.351080078125,-0.021056232032179833,-0.010258943685889244,0.007008855848759412
1714412581942154000,10.361154052734374,0.0009282207608222961,-0.014660608144360593,0.010686959839612245
1714412581952226800,10.371226806640625,0.012493570870161055,-0.002913184032961726,0.006370411814749241
1714412581962300000,10.3812998046875,0.005028641816973686,0.0008075900558382272,-0.018578882133215666
1714412581972373000,10.391373046875,0.0331745398491621,-0.023998564527812412,-0.030481793633848425
1714412581982446800,10.40144677734375,0.03855623288750648,-0.008240005078911782,-0.01414250712096691
1714412581992520000,10.41152001953125,0.0256324539065361,-0.00010484861396253108,-0.010218903936445712
1714412582002593000,10.421593017578125,0.03086275577545166,-0.013395999602600931,0.0010417641378939152
1714412582012667000,10.4316669921875,0.010654080483317374,-0.018223049866291693,0.009770137255638836
1714412582022740000,10.441739990234375,0.005435469052195548,-0.019690423571690915,0.016235095486044883
1714412582032812800,10.451812744140625,0.0045341362982988355,-0.013310878602415322,-0.0008050327725708485
1714412582042886100,10.46188623046875,0.010673369705677033,-0.0073079118605703115,0.01129383969157934
1714412582052960000,10.4719599609375,0.007218260815739631,0.00008790204573888332,0.009581775076687336
1714412582063032800,10.48203271484375,0.022317045748233795,0.012085871418681926,-0.008284574873000383
1714412582073106200,10.492106201171875,0.02305529689490795,-0.003933028599992394,-0.021541823592036963
1714412582083179000,10.502178955078126,0.027236966493725773,-0.000005699088424444198,-0.0020392507426440715
1714412582093252900,10.5122529296875,0.018545125994086264,0.008394834881019778,-0.01018763201534748
1714412582103326000,10.522325927734375,0.0239244809448719,0.006214417535439133,-0.004750701658427715
1714412582113399000,10.53239892578125,0.03410217608809471,-0.000719327250495553,0.008553454942256213
1714412582123472000,10.542471923828124,0.00580488688647747,-0.002958918304252438,0.0037153672613203523
1714412582133546000,10.5525458984375,0.011057400587201118,-0.0025110284062800927,0.006913578780740499
1714412582143618800,10.562618896484375,0.027356208959221837,0.0060867725677788255,0.0025020459488034248
1714412582153692000,10.57269189453125,0.02779576942026615,-0.004644021846982651,0.0013704115703701972
1714412582163765000,10.582764892578124,0.019824059888720512,0.0005308920063078404,-0.008554477855563163
1714412582173838800,10.5928388671875,0.005756371569633483,0.004184007686376571,0.00013137129470705986
1714412582183912000,10.602911865234375,0.008304302486777305,-0.019128332709521054,-0.006035042380541563
1714412582193985000,10.612985107421874,0.0038134208083152768,-0.025640929473936556,-0.003189005299657583
1714412582204057900,10.623057861328125,0.01102116023004055,-0.004058038652571849,0.0009895955592393875
1714412582214131700,10.633131591796875,0.00011690437793731689,-0.00734597884863615,-0.016635492980480192
1714412582224205000,10.643205078125,0.006453706184029579,-0.006624678836762905,-0.013368746269494294
1714412582234278000,10.65327783203125,0.012756021198630332,-0.004009162576124072,-0.008391980770230293
1714412582244351700,10.663351806640625,0.028028993654251096,0.0013444003462791442,-0.0020199615202844143
1714412582254425000,10.673425048828125,0.00783960758447647,-0.020893077359721065,0.004944762925803661
1714412582264498000,10.683497802734376,0.013660276561975479,0.004766045358031988,0.009233107769489287
1714412582274571000,10.693571044921875,0.019326631760597228,0.005553980865329503,-0.0026214345447719096
1714412582284644900,10.703644775390625,0.014506079736351965,0.013153642214089632,-0.024127310040593146
1714412582294718000,10.713718017578126,0.009402619117498397,-0.0015483984857797622,-0.0137029466599226
1714412582304791000,10.723791015625,0.0029629414588212967,-0.006784764769300818,-0.02519187053218484
1714412582314863900,10.73386376953125,-0.0033259295523166655,-0.006241447106259875,-0.013646394167095422
1714412582324937700,10.743937744140625,0.01686696364879608,-0.013165990239009261,0.003309124547988176
1714412582335011000,10.754010986328124,0.03196399501562119,-0.015097323627769946,-0.0004756546877324581
1714412582345084000,10.764083984375,0.03611468495428562,-0.0012241349674761294,-0.009357172540575266
1714412582355157000,10.774156982421875,0.017518705555796623,0.0024522885229438544,-0.016586247011274098
1714412582365231000,10.784231201171876,0.019144260931015015,-0.0005978197626769542,-0.025134733517467974
1714412582375304000,10.794303955078124,-0.0031651860326528548,0.005149272521957755,-0.027598493282496927
1714412582385377000,10.804376953125,0.015407997012138366,0.003609865626809187,-0.008258855909854174
1714412582395449900,10.814449951171875,0.015575170272588729,-0.00007087327912449836,-0.012858458659797907
1714412582405524000,10.82452392578125,0.010674538749456406,0.01025507122837007,-0.0325426716864109
1714412582415597000,10.83459716796875,0.017713351345062255,0.00047112920966465026,-0.003701484866440296
1714412582425670000,10.844669921875,0.02593698981106281,0.002497004447504878,0.014296236377954482
1714412582435743000,10.854742919921875,0.02066460236608982,0.0009419570252299308,0.01256941258534789
1714412582445817000,10.864817138671874,0.015272972455620764,-0.015291019568964838,-0.01044146064594388
1714412582455890000,10.874889892578125,0.0168704707801342,-0.0057039107300341126,-0.00041880993396043776
1714412582465963000,10.884962890625,0.008474398356676101,0.005755056395381689,0.02033244780227542
1714412582476035800,10.895035888671876,0.026281857725977895,-0.018964958841353654,-0.017828502157330513
1714412582486110000,10.90510986328125,0.009518938973546028,-0.0035706980936229225,-0.007324351538717746
1714412582496183000,10.91518310546875,-0.009469839134812355,0.011865575164929032,-0.002787292630970478
1714412582506256000,10.925255859375,0.003273322582244873,0.0006822831757366657,-0.019243337391316888
1714412582516329000,10.935328857421876,0.02676934898197651,-0.017388498738291673,-0.017022592601925134
1714412582526403000,10.945403076171875,0.028272154760360716,-0.0005191285032778978,-0.03517462762519717
1714412582536476000,10.955475830078125,0.011079612419009208,-0.004091945488750934,-0.0063935004293918605
1714412582546548700,10.965548828125,0.019326631760597228,-0.007979235250875353,-0.005458557666838169
1714412582556623000,10.975623046875,0.017703998994827268,-0.006589899784326553,-0.023860329667478797
1714412582566696000,10.985696044921875,0.0061906713336706155,-0.008980448182672261,0.0028638649985194206
1714412582576768800,10.995768798828125,0.014451134678721427,-0.0018785026564029975,0.002080751796811819
1714412582586841900,11.005841796875,0.023299627044796944,0.00767535693347454,-0.009124825089424847
1714412582596916000,11.015916015625,0.013430559459328651,-0.0031891468635527414,-0.009311579833179711
1714412582606988800,11.02598876953125,0.012070377022027968,-0.0037189474578946825,-0.0023506547793745993
1714412582617062000,11.036061767578126,0.019848609808087347,0.001720247921347618,-0.025821254476904868
1714412582627135000,11.046135009765624,0.00696516283750534,0.0030620224857004358,-0.0137562842823565
1714412582637208800,11.056208740234375,0.012204232534766197,-0.010336173640564083,-0.007637655271589755
1714412582647282000,11.066281982421875,0.00892448021173477,-0.00400901644565165,-0.004117664451897144
1714412582657354800,11.076354736328126,0.008643325182795524,-0.007491305603459477,0.004450111276656389
1714412582667428000,11.086427978515625,0.014632920986413955,-0.001778407849371433,-0.007696399721503257
1714412582677502000,11.096501953125,0.012086743634939194,-0.00394245401546359,0.002339548863470554
1714412582687574500,11.106574462890626,0.02465045713186264,-0.009156827662885189,0.00013707038313150405
1714412582697647600,11.116647705078124,0.01763210280239582,0.007161489127203821,-0.007743453733623028
1714412582707720400,11.126720458984375,0.003127192109823227,-0.0011495353613048792,-0.008698562501370907
1714412582717794600,11.136794677734375,0.019885434687137604,0.0005250467874109745,-0.01512070450335741
1714412582727867600,11.14686767578125,0.014929273584485054,0.00361191145342309,-0.013812106122821568
1714412582737940500,11.1569404296875,0.01028174003958702,-0.0009784165780991315,-0.002389671615511179
1714412582748013600,11.167013671875,0.029263503885269163,-0.0014647387903183697,-0.006890051774680614
1714412582758087700,11.177087646484376,0.025683307310938833,-0.008426467561721801,0.0042681788384914396
1714412582768160500,11.187160400390624,0.006816694277524947,-0.00037482466176152226,-0.0169042269192636
1714412582778233600,11.197233642578125,0.011619710645079611,0.00044642859324812886,-0.005774930139631033
1714412582788307700,11.2073076171875,0.021499299624562263,-0.005007375266659073,0.006334755979478359
1714412582798380500,11.217380615234376,0.021216975551843643,0.0008701338980346918,-0.00020224457383155822
1714412582808453600,11.22745361328125,0.00386252064704895,-0.000038573878142051396,0.0020271219134330746
1714412582818526500,11.2375263671875,0.005225041171908378,-0.0016703443650156258,-0.015581892274320124
1714412582828600600,11.2476005859375,0.011511574095487594,0.0026797406032681463,0.0026623510770499704
1714412582838673700,11.257673583984374,0.014813538250327109,0.0052755292501300574,-0.004883972649276256
1714412582848746500,11.26774658203125,0.011837152788043022,-0.009885434198379516,-0.02893018027767539
1714412582858819800,11.27781982421875,0.014817045381665228,0.0009481675703078508,-0.02660436767861247
1714412582868893700,11.287893798828126,0.011966916647553442,0.0062055812084348865,-0.018322423154115676
1714412582878966500,11.297966552734374,0.01301496439576149,-0.01123239182792604,-0.013388620013743639
1714412582889039600,11.30803955078125,0.009880758023262024,0.0063283993039280175,-0.01957359225898981
1714412582899112700,11.31811279296875,0.009299158743023872,0.0012706775229424237,-0.0038197044186294078
1714412582909186600,11.3281865234375,0.008569675424695014,-0.011913652090355753,0.0005535422295331955
1714412582919259600,11.338259765625,0.010554711762070654,-0.005234758848324418,-0.018243220438063142
1714412582929332500,11.34833251953125,0.010604396122694015,-0.001249561669677496,-0.01899666915386915
1714412582939405600,11.358405517578126,0.008238836035132409,-0.011927826746180653,-0.0003124269500374794
1714412582949479700,11.368479736328124,0.013809914165735244,-0.011556947607174515,-0.008599924432486295
1714412582959552500,11.378552490234375,0.016205869391560553,0.003741889942064881,-0.011457213559746741
1714412582969625600,11.38862548828125,0.012887538623809813,0.000819285060209222,-0.008737140946090221
1714412582979698700,11.39869873046875,0.03947627034187317,-0.004957910101744346,0.009514408928900956
1714412582989772500,11.4087724609375,0.026292963641881942,0.004846928574517369,-0.0011748889982700348
1714412582999845600,11.418845703125,-0.016349077254533766,-0.00972417922206223,0.0035860417932271956
1714412583009918700,11.428918701171876,-0.00867313579916954,0.011401250155386514,-0.001025251394510269
1714412583019991600,11.438991455078124,0.0003442833930253982,0.007267360654473304,-0.015937719974666833
1714412583030065700,11.449065673828125,0.02712298472523689,0.0133647276815027,-0.006623509792983532
1714412583040138800,11.459138671875,0.051388826453685754,-0.01552453606389463,-0.02428483868986368
1714412583050211600,11.469211669921876,0.025656419304013252,-0.012544351209327578,-0.018632073625177145
1714412583060284700,11.47928466796875,0.014721768313646315,0.0014648894873680546,0.004475537978857755
1714412583070358500,11.489358642578125,0.009790157130360603,-0.002952493130043149,0.0003942600145936012
1714412583080431600,11.499431640625,0.018165186765789983,-0.011595014595240354,-0.009740765030682086
1714412583090504700,11.509504638671874,-0.005476970106363296,-0.002182312475144863,0.0020776830568909645
1714412583100578600,11.51957861328125,0.012938392028212547,0.0023488327150465917,0.009647533789277076
1714412583110651400,11.5296513671875,0.02834872712790966,-0.003305398220941424,0.0018789456143975256
1714412583120724700,11.539724853515626,0.018334113591909406,0.012055690909549593,-0.018085107266902923
1714412583130797600,11.549797607421874,0.01594166549742222,0.014394509120658039,0.0019604864180088042
1714412583140871400,11.559871337890625,0.0129752169072628,0.004659808504581451,-0.01480915433615446
1714412583150944800,11.56994482421875,0.03185352037847042,0.008867270131781697,-0.010315642309188843
1714412583161017600,11.580017578125,0.018967735320329665,0.005077088635158725,-0.03250453163310885
1714412583171090700,11.590090576171875,0.006707388684153557,-0.00033639234751462935,-0.02957476179152727
1714412583181164500,11.60016455078125,0.028559739530086517,0.00018785528887528926,0.005111351664364338
1714412583191237600,11.610237548828126,0.02376724455654621,0.00008358663022518158,0.0015431377887725828
1714412583201310700,11.620310791015624,-0.0037660745352506636,-0.0008205956678837538,0.0022904490247368813
1714412583211383600,11.630383544921875,0.012550269493460655,0.00046411038041114806,0.0001607435196638107
1714412583221457700,11.640457763671876,0.00012801029384136198,0.0019097060788422823,-0.005055968215316534
1714412583231530800,11.65053076171875,0.008058218771219252,0.002145925987511873,-0.01148994678556919
1714412583241603600,11.660603515625,0.0263122528642416,-0.010836305182427168,0.006926438262313604
1714412583251676700,11.6706767578125,0.019114450314641,0.009735139007493853,-0.014522446349263191
1714412583261750800,11.680750732421876,0.0058066404521465295,0.002991583031415939,-0.008300210833549499
1714412583271823600,11.69082373046875,0.02016834328174591,-0.012661470216396265,-0.008272884435206651
1714412583281896700,11.700896728515625,0.014345920738577841,-0.006513035155832767,-0.01075578729212284
1714412583291969500,11.710969482421875,0.007626257094740867,0.0071517714507877824,-0.02894815432578325
1714412583302043600,11.721043701171874,0.0078045362710952755,0.0066975248772650955,0.01186725566536188
1714412583312116700,11.73111669921875,0.00032382512688636776,0.001518295608460903,0.018591595484316346
1714412583322189600,11.741189453125,0.016064999616146085,-0.007168503389880061,-0.024540859277546404
1714412583332262400,11.751262451171876,0.008870119675993918,-0.012179166592168621,-0.011891513323783874
1714412583342336800,11.761336669921874,0.03460544943511486,0.007921367583796381,-0.003202303172647953
1714412583352409600,11.77140966796875,0.02592529937326908,0.020919385411334222,-0.013965543118864297
1714412583362482400,11.781482421875,0.024833412483334538,-0.0061965896178036925,-0.0156330379396677
1714412583372555500,11.791555419921876,0.0005991349369287491,-0.006342573959752917,0.00811564804688096
1714412583382629600,11.801629638671875,0.007324643799662589,-0.005310089106857777,-0.00230900759473443
1714412583392702500,11.811702392578125,0.026007716959714888,-0.002354088845476508,0.008451748133450745
1714412583402775600,11.821775634765626,0.0369260013371706,-0.009311872094124554,0.012383680754899979
1714412583412849700,11.831849609375,0.023892916762828825,-0.004169759965315461,0.0015539514437317846
1714412583422922500,11.841922607421875,0.013984101688861847,0.01177278688151855,-0.016791121933609245
1714412583432995600,11.85199560546875,0.009634089785814285,0.0009880611892789603,-0.00909662190824747
1714412583443068400,11.862068359375,0.009156535401940346,-0.0014944032762199638,-0.012210077753663062
1714412583453142500,11.872142578125,0.010237900897860527,0.014731705185770988,-0.024994302133470772
1714412583463215600,11.882215576171875,0.0032248072654008863,0.005387981215235777,-0.012999182304739952
1714412583473288400,11.892288330078125,0.00851063871383667,0.0014374854572117327,-0.008215455159544945
1714412583483361800,11.90236181640625,0.018880641558766363,-0.005657295109331608,-0.009695902975648641
1714412583493435600,11.912435546875,0.02172901672720909,0.005450301295146346,0.013609569288045168
1714412583503508500,11.922508544921875,0.01858545800447464,-0.005988061433658004,0.017357523644715548
1714412583513581600,11.93258154296875,0.025919454154372214,-0.0008620967220515012,0.01614887850731611
1714412583523654700,11.942654541015624,0.014991232904791832,-0.007290376203879714,-0.0017791385017335414
1714412583533728500,11.952728515625,0.014085223975777625,-0.011849281617254018,0.01159457620382309
1714412583543801600,11.962801513671875,0.005550619864463806,-0.0030322803679853675,-0.001840367169678211
