time,seconds_elapsed,z,y,x
1713449314831971800,0.010971923828125,-0.992279052734375,-0.026702880859375,-0.1131591796875
1713449314842045700,0.021045654296875,-0.991119384765625,-0.0281982421875,-0.111846923828125
1713449314852118800,0.031118896484375,-0.9900054931640625,-0.028839111328125,-0.1114654541015625
1713449314862193000,0.04119287109375,-0.993438720703125,-0.0273895263671875,-0.1113433837890625
1713449314872265700,0.051265625,-0.9965057373046875,-0.0246429443359375,-0.1127471923828125
1713449314882339800,0.06133984375,-0.9941864013671875,-0.0250244140625,-0.11163330078125
1713449314892412700,0.07141259765625,-0.99468994140625,-0.0238494873046875,-0.110687255859375
1713449314902486800,0.08148681640625,-0.996826171875,-0.0241851806640625,-0.111907958984375
1713449314912560600,0.091560546875,-0.9933624267578125,-0.0272674560546875,-0.113983154296875
1713449314922633700,0.1016337890625,-0.9931182861328125,-0.0266571044921875,-0.1135406494140625
1713449314932707800,0.111707763671875,-1.000732421875,-0.024261474609375,-0.1124420166015625
1713449314942780700,0.12178076171875,-1.002899169921875,-0.0247802734375,-0.11279296875
1713449314952854800,0.131854736328125,-1.0016632080078125,-0.0172119140625,-0.1135101318359375
1713449314962927900,0.141927978515625,-1.004547119140625,-0.0133209228515625,-0.1121673583984375
1713449314973001700,0.152001708984375,-0.9976654052734375,-0.018585205078125,-0.1090087890625
1713449314983074600,0.162074462890625,-0.995574951171875,-0.027435302734375,-0.1049957275390625
1713449314993149000,0.17214892578125,-0.997711181640625,-0.028350830078125,-0.103607177734375
1713449315003221800,0.1822216796875,-0.996612548828125,-0.02923583984375,-0.10162353515625
1713449315013295600,0.192295654296875,-0.9944305419921875,-0.0394287109375,-0.1010284423828125
1713449315023369000,0.202368896484375,-0.9798431396484375,-0.0372161865234375,-0.103424072265625
1713449315033442800,0.21244287109375,-0.980987548828125,-0.0109710693359375,-0.10870361328125
1713449315043515600,0.222515625,-0.9971160888671875,-0.006622314453125,-0.1099395751953125
1713449315053589800,0.23258984375,-1.0034332275390625,-0.033355712890625,-0.1094970703125
1713449315063662800,0.242662841796875,-1.0053863525390625,-0.03924560546875,-0.107574462890625
1713449315073736700,0.25273681640625,-1.0020294189453125,-0.022369384765625,-0.09210205078125
1713449315083809800,0.262809814453125,-0.9908905029296875,-0.0168304443359375,-0.09063720703125
1713449315093883600,0.272883544921875,-0.9773101806640625,-0.0265045166015625,-0.094207763671875
1713449315103956700,0.282956787109375,-0.9700775146484375,-0.0301055908203125,-0.0924835205078125
1713449315114030800,0.29303076171875,-0.9855499267578125,-0.029815673828125,-0.096343994140625
1713449315124103700,0.303103759765625,-1.0066070556640625,-0.02227783203125,-0.096893310546875
1713449315134177800,0.313177734375,-0.9987945556640625,-0.0201873779296875,-0.08782958984375
1713449315144251000,0.3232509765625,-0.99029541015625,-0.023345947265625,-0.089141845703125
1713449315154324700,0.33332470703125,-0.9914703369140625,-0.0256195068359375,-0.089691162109375
1713449315164397800,0.343397705078125,-0.9960479736328125,-0.026123046875,-0.0902862548828125
1713449315174472000,0.353471923828125,-0.991180419921875,-0.0220947265625,-0.09088134765625
1713449315184545800,0.3635458984375,-0.982269287109375,-0.02435302734375,-0.090087890625
1713449315194618600,0.37361865234375,-0.9777069091796875,-0.024322509765625,-0.09130859375
1713449315204692700,0.383692626953125,-0.98028564453125,-0.0259246826171875,-0.09637451171875
1713449315214765800,0.393765869140625,-0.982879638671875,-0.03033447265625,-0.0966339111328125
1713449315224839700,0.403839599609375,-0.978546142578125,-0.0447540283203125,-0.097808837890625
1713449315234912800,0.413912841796875,-0.980987548828125,-0.0523681640625,-0.090606689453125
1713449315244987000,0.42398681640625,-0.9893951416015625,-0.03460693359375,-0.09417724609375
1713449315255059700,0.434059814453125,-0.9960479736328125,-0.024017333984375,-0.0959320068359375
1713449315265133800,0.4441337890625,-0.988372802734375,-0.02862548828125,-0.0970306396484375
1713449315275207000,0.45420703125,-0.9758758544921875,-0.026641845703125,-0.10302734375
1713449315285280800,0.46428076171875,-0.9836273193359375,-0.0243988037109375,-0.1049957275390625
1713449315295353600,0.474353515625,-0.99749755859375,-0.022308349609375,-0.1050567626953125
1713449315305427700,0.484427734375,-1.001861572265625,-0.028289794921875,-0.1014556884765625
1713449315315500800,0.494500732421875,-0.9960479736328125,-0.0323944091796875,-0.104248046875
1713449315325575000,0.504574951171875,-0.99261474609375,-0.0313262939453125,-0.1046600341796875
1713449315335647700,0.514647705078125,-0.9934844970703125,-0.030029296875,-0.1022491455078125
1713449315345721600,0.5247216796875,-0.9997711181640625,-0.02740478515625,-0.103057861328125
1713449315355794700,0.534794677734375,-1.0023956298828125,-0.026123046875,-0.1024017333984375
1713449315365868800,0.544868896484375,-0.99896240234375,-0.0294952392578125,-0.1032867431640625
1713449315375941600,0.554941650390625,-0.99072265625,-0.0294342041015625,-0.1010284423828125
1713449315386015700,0.565015625,-0.9869232177734375,-0.0276641845703125,-0.1026153564453125
1713449315396088800,0.5750888671875,-0.9882659912109375,-0.027923583984375,-0.1034393310546875
1713449315406162700,0.58516259765625,-0.9879302978515625,-0.0277557373046875,-0.1092987060546875
1713449315416236800,0.59523681640625,-0.98858642578125,-0.0281829833984375,-0.111572265625
1713449315426310000,0.605309814453125,-0.9894561767578125,-0.0246429443359375,-0.1149749755859375
1713449315436383700,0.6153837890625,-0.993988037109375,-0.0238494873046875,-0.1132659912109375
1713449315446456600,0.62545654296875,-0.995574951171875,-0.025421142578125,-0.1087799072265625
1713449315456530700,0.63553076171875,-0.995819091796875,-0.02374267578125,-0.107147216796875
1713449315466603800,0.645603759765625,-0.9922637939453125,-0.02215576171875,-0.1065216064453125
1713449315476677600,0.655677734375,-0.98828125,-0.02532958984375,-0.1019744873046875
1713449315486750700,0.665750732421875,-0.9838409423828125,-0.0276947021484375,-0.1015625
1713449315496824800,0.675824951171875,-0.9818267822265625,-0.0334320068359375,-0.1123046875
1713449315506897700,0.685897705078125,-0.980682373046875,-0.0316925048828125,-0.11614990234375
1713449315516971800,0.6959716796875,-0.987213134765625,-0.02655029296875,-0.1194915771484375
1713449315527044900,0.706044921875,-1.0011138916015625,-0.0249176025390625,-0.1180877685546875
1713449315537118700,0.71611865234375,-1.0031585693359375,-0.025360107421875,-0.1172637939453125
1713449315547191800,0.72619189453125,-0.992462158203125,-0.0312042236328125,-0.11090087890625
1713449315557265700,0.736265625,-0.9781341552734375,-0.0368804931640625,-0.1113128662109375
1713449315567338800,0.7463388671875,-0.969635009765625,-0.034515380859375,-0.11767578125
1713449315577412900,0.756412841796875,-0.9773712158203125,-0.032501220703125,-0.1229400634765625
1713449315587485700,0.766485595703125,-0.9897003173828125,-0.0257415771484375,-0.1244049072265625
1713449315597559800,0.776559814453125,-1.0022735595703125,-0.0235595703125,-0.124755859375
1713449315607633000,0.7866328125,-0.9987335205078125,-0.0238189697265625,-0.1250762939453125
1713449315617706800,0.796706787109375,-0.9856719970703125,-0.0264434814453125,-0.12646484375
1713449315627779800,0.80677978515625,-0.9763336181640625,-0.0220947265625,-0.1240234375
1713449315637854000,0.81685400390625,-0.983734130859375,-0.01287841796875,-0.1313018798828125
1713449315647926800,0.8269267578125,-0.9970550537109375,-0.0024566650390625,-0.1331939697265625
1713449315658000600,0.837000732421875,-1.00811767578125,-0.0039520263671875,-0.1268463134765625
1713449315668074800,0.84707470703125,-1.00360107421875,-0.018310546875,-0.1197967529296875
1713449315678147800,0.85714794921875,-0.99224853515625,-0.03363037109375,-0.1140899658203125
1713449315688221700,0.8672216796875,-0.9799957275390625,-0.0371856689453125,-0.1243133544921875
1713449315698294800,0.877294677734375,-0.9808502197265625,-0.0342254638671875,-0.1478729248046875
1713449315708369000,0.887368896484375,-0.9946746826171875,-0.0275421142578125,-0.16204833984375
1713449315718441700,0.897441650390625,-0.990936279296875,-0.0143890380859375,-0.1615142822265625
1713449315728515800,0.907515869140625,-0.9808349609375,-0.002349853515625,-0.156951904296875
1713449315738589000,0.9175888671875,-0.97418212890625,-0.0022735595703125,-0.15020751953125
1713449315748662800,0.927662841796875,-0.966217041015625,-0.0169677734375,-0.1448211669921875
1713449315758735600,0.937735595703125,-0.97137451171875,-0.0380706787109375,-0.144256591796875
1713449315768809700,0.947809814453125,-0.98919677734375,-0.0434722900390625,-0.1553955078125
1713449315778882800,0.9578828125,-1.0033416748046875,-0.0173797607421875,-0.1634674072265625
1713449315788956700,0.967956787109375,-1.0262603759765625,-0.004608154296875,-0.156890869140625
1713449315799029800,0.97802978515625,-1.038116455078125,-0.0077972412109375,-0.1504974365234375
1713449315809103600,0.988103515625,-1.03887939453125,-0.01678466796875,-0.16796875
1713449315819176700,0.9981767578125,-1.03729248046875,-0.01971435546875,-0.1703643798828125
1713449315829250800,1.008250732421875,-1.0288238525390625,-0.024871826171875,-0.1596527099609375
1713449315839323600,1.01832373046875,-1.01104736328125,-0.03753662109375,-0.1515655517578125
1713449315849397800,1.028397705078125,-1.004669189453125,-0.037017822265625,-0.1551055908203125
1713449315859470600,1.038470703125,-1.004364013671875,-0.026397705078125,-0.1579742431640625
1713449315869544700,1.048544677734375,-1.006683349609375,-0.015350341796875,-0.163818359375
1713449315879618600,1.05861865234375,-1.006866455078125,-0.0134124755859375,-0.1738433837890625
1713449315889692000,1.06869189453125,-0.9967803955078125,-0.0186920166015625,-0.1756439208984375
1713449315899765800,1.078765869140625,-0.990478515625,-0.041412353515625,-0.1682891845703125
1713449315909838600,1.088838623046875,-0.972198486328125,-0.058807373046875,-0.169281005859375
1713449315919912700,1.09891259765625,-0.940399169921875,-0.0279083251953125,-0.148681640625
1713449315929985800,1.10898583984375,-0.937255859375,0.0039825439453125,-0.116912841796875
1713449315940059600,1.1190595703125,-0.96185302734375,-0.0013275146484375,-0.1043548583984375
1713449315950132700,1.1291328125,-0.9706573486328125,-0.01898193359375,-0.115631103515625
1713449315960206800,1.139206787109375,-0.9545745849609375,-0.0313873291015625,-0.1220550537109375
1713449315970279700,1.14927978515625,-0.9396820068359375,-0.0323638916015625,-0.1153411865234375
1713449315980353800,1.159353759765625,-0.9388275146484375,-0.0351715087890625,-0.111053466796875
1713449315990427000,1.169427001953125,-0.9579010009765625,-0.0394439697265625,-0.1168670654296875
1713449316000500700,1.179500732421875,-0.9923858642578125,-0.03759765625,-0.1289825439453125
1713449316010573600,1.189573486328125,-1.010498046875,-0.0294647216796875,-0.1372528076171875
1713449316020647700,1.199647705078125,-1.0088653564453125,-0.02191162109375,-0.146942138671875
1713449316030720800,1.209720703125,-1.0032958984375,-0.0250396728515625,-0.147247314453125
1713449316040794600,1.219794677734375,-1.0053558349609375,-0.039825439453125,-0.153839111328125
1713449316050867700,1.22986767578125,-1.0079498291015625,-0.0469512939453125,-0.1573486328125
1713449316060941800,1.23994189453125,-1.0144805908203125,-0.0431671142578125,-0.1522369384765625
1713449316071014700,1.2500146484375,-1.0266876220703125,-0.0367584228515625,-0.153961181640625
1713449316081088800,1.2600888671875,-1.0255279541015625,-0.03619384765625,-0.157562255859375
1713449316091162600,1.27016259765625,-1.0100555419921875,-0.03564453125,-0.1602783203125
1713449316101235700,1.280235595703125,-1.00067138671875,-0.03546142578125,-0.156585693359375
1713449316111309800,1.290309814453125,-0.9962615966796875,-0.0336761474609375,-0.1431884765625
1713449316121382700,1.300382568359375,-0.99267578125,-0.031951904296875,-0.1308135986328125
1713449316131456500,1.31045654296875,-0.987335205078125,-0.026214599609375,-0.125152587890625
1713449316141529900,1.32052978515625,-0.9790802001953125,-0.0214080810546875,-0.12164306640625
1713449316151603700,1.330603759765625,-0.9664154052734375,-0.0177001953125,-0.1209869384765625
1713449316161676500,1.340676513671875,-0.96405029296875,-0.01666259765625,-0.1131744384765625
1713449316171750700,1.350750732421875,-0.9730682373046875,-0.0201263427734375,-0.10076904296875
1713449316181823700,1.36082373046875,-0.97515869140625,-0.0197601318359375,-0.089691162109375
1713449316191897600,1.370897705078125,-0.9691009521484375,-0.0184783935546875,-0.093505859375
1713449316201970700,1.380970703125,-0.9643096923828125,-0.020904541015625,-0.09698486328125
1713449316212044800,1.391044921875,-0.9642486572265625,-0.0215301513671875,-0.0962982177734375
1713449316222117600,1.40111767578125,-0.9688568115234375,-0.0218353271484375,-0.098052978515625
1713449316232191700,1.411191650390625,-0.9770965576171875,-0.0232086181640625,-0.1031646728515625
1713449316242264800,1.421264892578125,-0.9883270263671875,-0.02545166015625,-0.1133270263671875
1713449316252338700,1.431338623046875,-0.9929656982421875,-0.0269317626953125,-0.1214752197265625
1713449316262411800,1.441411865234375,-0.997833251953125,-0.029052734375,-0.12701416015625
1713449316272485600,1.451485595703125,-1.00653076171875,-0.0267791748046875,-0.1320343017578125
1713449316282558700,1.461558837890625,-1.0126190185546875,-0.0242156982421875,-0.1339874267578125
1713449316292632800,1.4716328125,-1.011688232421875,-0.026763916015625,-0.13897705078125
1713449316302705700,1.48170556640625,-1.0082855224609375,-0.028717041015625,-0.1443939208984375
1713449316312779800,1.49177978515625,-1.008575439453125,-0.0295562744140625,-0.140167236328125
1713449316322854000,1.50185400390625,-1.0055389404296875,-0.0285797119140625,-0.1356048583984375
1713449316332926700,1.5119267578125,-0.997283935546875,-0.0290374755859375,-0.1299285888671875
1713449316343000600,1.52200048828125,-0.99468994140625,-0.0269317626953125,-0.127838134765625
1713449316353074000,1.532073974609375,-0.9924163818359375,-0.02618408203125,-0.12750244140625
1713449316363147800,1.542147705078125,-0.9859466552734375,-0.025115966796875,-0.1207275390625
1713449316373220600,1.552220703125,-0.9810638427734375,-0.0282440185546875,-0.1162872314453125
1713449316383294700,1.562294677734375,-0.985382080078125,-0.0341644287109375,-0.1240997314453125
1713449316393367800,1.572367919921875,-0.9876251220703125,-0.034576416015625,-0.123748779296875
1713449316403441700,1.582441650390625,-0.9838104248046875,-0.0337066650390625,-0.1186981201171875
1713449316413514500,1.592514404296875,-0.9841156005859375,-0.029754638671875,-0.1180267333984375
1713449316423588900,1.6025888671875,-0.9846954345703125,-0.0323638916015625,-0.1240692138671875
1713449316433661700,1.61266162109375,-0.9868316650390625,-0.0306549072265625,-0.1250762939453125
1713449316443735800,1.62273583984375,-0.9888153076171875,-0.0241851806640625,-0.1213226318359375
1713449316453809000,1.632808837890625,-0.9945068359375,-0.022125244140625,-0.1270751953125
1713449316463882800,1.6428828125,-0.9917755126953125,-0.0243072509765625,-0.12896728515625
1713449316473955600,1.65295556640625,-0.98748779296875,-0.0257415771484375,-0.1282806396484375
1713449316484029700,1.66302978515625,-0.9901580810546875,-0.02667236328125,-0.1229248046875
1713449316494102800,1.673102783203125,-0.9929656982421875,-0.0239105224609375,-0.120819091796875
1713449316504176600,1.6831767578125,-0.9966278076171875,-0.0274810791015625,-0.1217498779296875
1713449316514250800,1.693250732421875,-0.9912872314453125,-0.025299072265625,-0.1234130859375
1713449316524323600,1.703323486328125,-0.985137939453125,-0.0245208740234375,-0.12445068359375
1713449316534398000,1.71339794921875,-0.99017333984375,-0.0216827392578125,-0.1234130859375
1713449316544470800,1.723470703125,-0.9988250732421875,-0.0227203369140625,-0.1176910400390625
1713449316554544600,1.733544677734375,-0.992767333984375,-0.02392578125,-0.11529541015625
1713449316564617700,1.74361767578125,-0.9845123291015625,-0.0238189697265625,-0.1182098388671875
1713449316574691800,1.75369189453125,-0.9828643798828125,-0.026092529296875,-0.118438720703125
1713449316584764700,1.7637646484375,-0.9835357666015625,-0.0307159423828125,-0.1147003173828125
1713449316594838500,1.773838623046875,-0.9887542724609375,-0.033721923828125,-0.1140899658203125
1713449316604911900,1.783911865234375,-0.9902496337890625,-0.029388427734375,-0.1165313720703125
1713449316614985700,1.79398583984375,-0.9900054931640625,-0.0294952392578125,-0.11773681640625
1713449316625058600,1.80405859375,-0.9906463623046875,-0.029815673828125,-0.1173858642578125
1713449316635132700,1.814132568359375,-1.0028533935546875,-0.02642822265625,-0.1182098388671875
1713449316645205800,1.824205810546875,-1.004058837890625,-0.021881103515625,-0.1212158203125
1713449316655279600,1.834279541015625,-0.99517822265625,-0.021575927734375,-0.1234283447265625
1713449316665352700,1.844352783203125,-0.99041748046875,-0.02703857421875,-0.1213531494140625
1713449316675426800,1.8544267578125,-0.9991912841796875,-0.02606201171875,-0.119140625
1713449316685499600,1.864499755859375,-1.0042266845703125,-0.0215911865234375,-0.1209564208984375
1713449316695573800,1.87457373046875,-0.9969482421875,-0.023681640625,-0.122772216796875
1713449316705646800,1.884646728515625,-0.986236572265625,-0.022308349609375,-0.1220703125
1713449316715720700,1.894720703125,-0.987457275390625,-0.023345947265625,-0.119781494140625
1713449316725794800,1.904794921875,-0.990753173828125,-0.0239410400390625,-0.1179046630859375
1713449316735867600,1.91486767578125,-0.99102783203125,-0.021514892578125,-0.116241455078125
1713449316745941800,1.924941650390625,-0.9880218505859375,-0.02166748046875,-0.11688232421875
1713449316756014600,1.9350146484375,-0.990020751953125,-0.0199737548828125,-0.114349365234375
1713449316766088400,1.94508837890625,-0.986328125,-0.0205535888671875,-0.1121063232421875
1713449316776161800,1.955161865234375,-0.9806060791015625,-0.023223876953125,-0.1107177734375
1713449316786235600,1.965235595703125,-0.983123779296875,-0.0260162353515625,-0.109466552734375
1713449316796308500,1.97530859375,-0.9909210205078125,-0.02459716796875,-0.11004638671875
1713449316806382600,1.985382568359375,-0.992523193359375,-0.0233154296875,-0.114715576171875
1713449316816455700,1.99545556640625,-0.9869842529296875,-0.0241241455078125,-0.115936279296875
1713449316826529500,2.005529541015625,-0.98553466796875,-0.0245819091796875,-0.117431640625
1713449316836602600,2.0156025390625,-0.990936279296875,-0.0255584716796875,-0.1209259033203125
1713449316846676500,2.025676513671875,-0.9977569580078125,-0.0232086181640625,-0.121307373046875
1713449316856749600,2.03574951171875,-0.9952239990234375,-0.025146484375,-0.1209869384765625
1713449316866823700,2.04582373046875,-0.992279052734375,-0.022125244140625,-0.1230926513671875
1713449316876896500,2.055896484375,-0.9925689697265625,-0.023162841796875,-0.1232147216796875
1713449316886970600,2.065970703125,-0.989166259765625,-0.0241546630859375,-0.1248779296875
1713449316897043700,2.076043701171875,-0.995513916015625,-0.0228271484375,-0.1224822998046875
1713449316907117600,2.08611767578125,-0.996673583984375,-0.02410888671875,-0.1211395263671875
1713449316917191400,2.09619140625,-0.994598388671875,-0.0240631103515625,-0.1181488037109375
1713449316927264800,2.1062646484375,-0.99127197265625,-0.0243377685546875,-0.1201934814453125
1713449316937338600,2.116338623046875,-0.9908447265625,-0.0263824462890625,-0.118743896484375
1713449316947411500,2.126411376953125,-0.9918975830078125,-0.02557373046875,-0.117523193359375
1713449316957485600,2.136485595703125,-0.9922332763671875,-0.023223876953125,-0.1168365478515625
1713449316967558700,2.14655859375,-0.9880218505859375,-0.0290374755859375,-0.1191558837890625
1713449316977632500,2.156632568359375,-0.98675537109375,-0.0285186767578125,-0.115386962890625
1713449316987705600,2.16670556640625,-0.9937896728515625,-0.02520751953125,-0.113250732421875
1713449316997779700,2.17677978515625,-0.9873199462890625,-0.0289154052734375,-0.1140594482421875
1713449317007852500,2.1868525390625,-0.99041748046875,-0.0254058837890625,-0.115570068359375
1713449317017926700,2.1969267578125,-0.99371337890625,-0.025848388671875,-0.11376953125
1713449317027999700,2.206999755859375,-0.9897003173828125,-0.0275115966796875,-0.113037109375
1713449317038073600,2.217073486328125,-0.9947509765625,-0.0273284912109375,-0.1155548095703125
1713449317048146400,2.227146484375,-0.99578857421875,-0.0270233154296875,-0.117034912109375
1713449317058220500,2.237220458984375,-0.99249267578125,-0.026031494140625,-0.115814208984375
1713449317068293600,2.247293701171875,-0.9929962158203125,-0.026947021484375,-0.1167449951171875
1713449317078367700,2.25736767578125,-0.9940948486328125,-0.0244140625,-0.117767333984375
1713449317088440600,2.267440673828125,-0.9943695068359375,-0.024658203125,-0.1168365478515625
1713449317098514400,2.277514404296875,-0.99517822265625,-0.0256195068359375,-0.1205291748046875
1713449317108587500,2.28758740234375,-0.9918365478515625,-0.024688720703125,-0.1196746826171875
1713449317118661600,2.29766162109375,-0.9913177490234375,-0.024505615234375,-0.120635986328125
1713449317128735500,2.307735595703125,-0.9888916015625,-0.0255584716796875,-0.1186370849609375
1713449317138808600,2.31780859375,-0.99053955078125,-0.026702880859375,-0.1173095703125
1713449317148882700,2.327882568359375,-0.995697021484375,-0.0249176025390625,-0.11968994140625
1713449317158955500,2.33795556640625,-0.9929046630859375,-0.02398681640625,-0.115936279296875
1713449317169029600,2.348029541015625,-0.98638916015625,-0.02642822265625,-0.1183013916015625
1713449317179102700,2.358102783203125,-0.989532470703125,-0.025665283203125,-0.1183624267578125
1713449317189176600,2.368176513671875,-0.9909210205078125,-0.0261688232421875,-0.11956787109375
1713449317199249400,2.37824951171875,-0.9928131103515625,-0.0265655517578125,-0.1175384521484375
1713449317209323500,2.388323486328125,-0.9892730712890625,-0.0267486572265625,-0.118194580078125
1713449317219396600,2.398396728515625,-0.989410400390625,-0.024627685546875,-0.1178436279296875
1713449317229470500,2.408470458984375,-0.992279052734375,-0.0256500244140625,-0.1171417236328125
1713449317239543600,2.41854345703125,-0.99114990234375,-0.0264129638671875,-0.1176300048828125
1713449317249617700,2.42861767578125,-0.990203857421875,-0.0269012451171875,-0.1192779541015625
1713449317259690500,2.4386904296875,-0.9915924072265625,-0.0264739990234375,-0.1185302734375
1713449317269764600,2.4487646484375,-0.992279052734375,-0.027435302734375,-0.1152496337890625
1713449317279837700,2.458837646484375,-0.99151611328125,-0.02618408203125,-0.1165924072265625
1713449317289911600,2.46891162109375,-0.9906463623046875,-0.02496337890625,-0.11822509765625
1713449317299985700,2.478985595703125,-0.99176025390625,-0.0254669189453125,-0.1172637939453125
1713449317310058500,2.48905859375,-0.993072509765625,-0.0250396728515625,-0.11810302734375
1713449317320132600,2.499132568359375,-0.99334716796875,-0.0268707275390625,-0.118804931640625
1713449317330205700,2.509205810546875,-0.9917755126953125,-0.02587890625,-0.11761474609375
1713449317340279600,2.519279541015625,-0.991455078125,-0.0269775390625,-0.1181640625
1713449317350352600,2.5293525390625,-0.992279052734375,-0.026214599609375,-0.118133544921875
1713449317360426800,2.5394267578125,-0.9930877685546875,-0.0262298583984375,-0.1178436279296875
1713449317370499600,2.54949951171875,-0.9921112060546875,-0.0268402099609375,-0.1167449951171875
1713449317380573400,2.559573486328125,-0.9896392822265625,-0.0263671875,-0.1175994873046875
1713449317390646800,2.569646728515625,-0.9904937744140625,-0.024627685546875,-0.1176910400390625
1713449317400720600,2.579720703125,-0.9911041259765625,-0.0260772705078125,-0.1183013916015625
1713449317410793500,2.58979345703125,-0.993255615234375,-0.0267333984375,-0.11529541015625
1713449317420867600,2.59986767578125,-0.9923095703125,-0.0257110595703125,-0.1158599853515625
1713449317430940700,2.609940673828125,-0.9912109375,-0.026947021484375,-0.117889404296875
1713449317441014500,2.6200146484375,-0.988861083984375,-0.0270233154296875,-0.1176300048828125
1713449317451087600,2.630087646484375,-0.99005126953125,-0.0264434814453125,-0.1167449951171875
1713449317461161700,2.64016162109375,-0.993438720703125,-0.0270233154296875,-0.1173858642578125
1713449317471234600,2.650234619140625,-0.992034912109375,-0.0269775390625,-0.1192626953125
1713449317481308700,2.66030859375,-0.99041748046875,-0.02581787109375,-0.1173248291015625
1713449317491382500,2.670382568359375,-0.990386962890625,-0.0259246826171875,-0.1192474365234375
1713449317501455600,2.68045556640625,-0.992279052734375,-0.027008056640625,-0.1187591552734375
1713449317511529700,2.69052978515625,-0.992156982421875,-0.02655029296875,-0.1170806884765625
1713449317521602600,2.7006025390625,-0.9916534423828125,-0.02447509765625,-0.1168670654296875
1713449317531676400,2.710676513671875,-0.9891357421875,-0.0253753662109375,-0.119842529296875
1713449317541749800,2.720749755859375,-0.987945556640625,-0.026275634765625,-0.11859130859375
1713449317551823600,2.73082373046875,-0.9912872314453125,-0.02593994140625,-0.1185302734375
1713449317561896400,2.740896484375,-0.992828369140625,-0.0277862548828125,-0.117889404296875
1713449317571970800,2.750970703125,-0.993255615234375,-0.0263671875,-0.118133544921875
1713449317582043600,2.761043701171875,-0.9903717041015625,-0.027679443359375,-0.1179046630859375
1713449317592117500,2.771117431640625,-0.9895782470703125,-0.0275726318359375,-0.119110107421875
1713449317602190600,2.781190673828125,-0.9901580810546875,-0.0268096923828125,-0.1175384521484375
1713449317612264700,2.7912646484375,-0.9931640625,-0.026092529296875,-0.11810302734375
1713449317622337500,2.801337646484375,-0.9935455322265625,-0.026519775390625,-0.1189727783203125
1713449317632411400,2.811411376953125,-0.990814208984375,-0.0269317626953125,-0.1191253662109375
1713449317642484700,2.821484619140625,-0.9893951416015625,-0.027191162109375,-0.11846923828125
1713449317652558600,2.83155859375,-0.99346923828125,-0.0262908935546875,-0.1193695068359375
1713449317662631400,2.84163134765625,-0.99420166015625,-0.02642822265625,-0.12042236328125
1713449317672705500,2.85170556640625,-0.9939117431640625,-0.02667236328125,-0.1169586181640625
1713449317682779600,2.861779541015625,-0.989501953125,-0.0262451171875,-0.1186065673828125
1713449317692852500,2.8718525390625,-0.9895172119140625,-0.02581787109375,-0.1172027587890625
1713449317702926600,2.881926513671875,-0.99053955078125,-0.02520751953125,-0.1174163818359375
1713449317712999700,2.891999755859375,-0.991546630859375,-0.0257568359375,-0.11773681640625
1713449317723073500,2.902073486328125,-0.991363525390625,-0.02716064453125,-0.11676025390625
1713449317733146600,2.912146728515625,-0.9914398193359375,-0.0262451171875,-0.1181793212890625
1713449317743220500,2.922220458984375,-0.989532470703125,-0.026947021484375,-0.11785888671875
1713449317753293600,2.93229345703125,-0.990020751953125,-0.0265655517578125,-0.1168975830078125
1713449317763367400,2.942367431640625,-0.9925384521484375,-0.025848388671875,-0.11810302734375
1713449317773440300,2.952440185546875,-0.994537353515625,-0.02545166015625,-0.1188812255859375
1713449317783514600,2.9625146484375,-0.99066162109375,-0.0255889892578125,-0.1189727783203125
1713449317793587500,2.97258740234375,-0.9895172119140625,-0.025909423828125,-0.118682861328125
1713449317803661600,2.98266162109375,-0.9902191162109375,-0.027496337890625,-0.119415283203125
1713449317813734700,2.992734619140625,-0.992401123046875,-0.025360107421875,-0.118988037109375
1713449317823808500,3.00280859375,-0.9920501708984375,-0.0251617431640625,-0.118072509765625
1713449317833881300,3.01288134765625,-0.99090576171875,-0.026214599609375,-0.1165618896484375
1713449317843955500,3.02295556640625,-0.9896240234375,-0.025787353515625,-0.116790771484375
1713449317854029300,3.033029296875,-0.9914703369140625,-0.0253753662109375,-0.1183319091796875
1713449317864102400,3.043102294921875,-0.9918060302734375,-0.0262298583984375,-0.118560791015625
1713449317874176500,3.053176513671875,-0.9931793212890625,-0.026824951171875,-0.1184844970703125
1713449317884249300,3.063249267578125,-0.99273681640625,-0.0267333984375,-0.1172027587890625
1713449317894323700,3.07332373046875,-0.99090576171875,-0.0269622802734375,-0.1179351806640625
1713449317904396500,3.083396484375,-0.9907379150390625,-0.0269622802734375,-0.1165771484375
1713449317914470400,3.093470458984375,-0.9918060302734375,-0.027069091796875,-0.1184234619140625
1713449317924543500,3.10354345703125,-0.993316650390625,-0.026336669921875,-0.1173858642578125
1713449317934617600,3.11361767578125,-0.9916839599609375,-0.025604248046875,-0.11761474609375
1713449317944690400,3.1236904296875,-0.991119384765625,-0.0258941650390625,-0.1164703369140625
1713449317954764300,3.133764404296875,-0.992584228515625,-0.026580810546875,-0.1180267333984375
1713449317964837600,3.143837646484375,-0.9928436279296875,-0.0278472900390625,-0.1189422607421875
1713449317974911500,3.153911376953125,-0.9922943115234375,-0.0265655517578125,-0.116180419921875
1713449317984984300,3.163984375,-0.99237060546875,-0.0254974365234375,-0.117523193359375
1713449317995058400,3.174058349609375,-0.992584228515625,-0.0271453857421875,-0.1185455322265625
1713449318005131500,3.184131591796875,-0.989837646484375,-0.0292816162109375,-0.119171142578125
1713449318015205400,3.194205322265625,-0.987335205078125,-0.0279083251953125,-0.1183013916015625
1713449318025279500,3.204279541015625,-0.99298095703125,-0.026336669921875,-0.1174468994140625
1713449318035352600,3.2143525390625,-0.996063232421875,-0.02593994140625,-0.1158905029296875
1713449318045426400,3.224426513671875,-0.99285888671875,-0.0258941650390625,-0.1190338134765625
1713449318055499500,3.23449951171875,-0.9871673583984375,-0.0273590087890625,-0.118927001953125
1713449318065573400,3.244573486328125,-0.987762451171875,-0.0262908935546875,-0.1168212890625
1713449318075646500,3.254646484375,-0.9940338134765625,-0.0269012451171875,-0.1167144775390625
1713449318085720600,3.264720458984375,-0.9971466064453125,-0.02685546875,-0.1166534423828125
1713449318095793400,3.27479345703125,-0.9935302734375,-0.026336669921875,-0.117767333984375
1713449318105867300,3.2848671875,-0.9884033203125,-0.0277557373046875,-0.119140625
1713449318115940600,3.294940673828125,-0.99176025390625,-0.02740478515625,-0.1185302734375
1713449318126014500,3.305014404296875,-0.9946746826171875,-0.02685546875,-0.118316650390625
1713449318136087300,3.31508740234375,-0.99249267578125,-0.0274810791015625,-0.119293212890625
1713449318146161700,3.32516162109375,-0.989715576171875,-0.0257720947265625,-0.118408203125
1713449318156234500,3.335234375,-0.988494873046875,-0.024749755859375,-0.1169281005859375
1713449318166308400,3.345308349609375,-0.990020751953125,-0.0254974365234375,-0.1183319091796875
1713449318176382500,3.355382568359375,-0.9929046630859375,-0.0253143310546875,-0.1168365478515625
1713449318186455600,3.36545556640625,-0.99267578125,-0.025146484375,-0.1179046630859375
1713449318196529400,3.375529296875,-0.989715576171875,-0.0272369384765625,-0.1189727783203125
1713449318206602500,3.3856025390625,-0.990875244140625,-0.0254058837890625,-0.120880126953125
1713449318216676400,3.39567626953125,-0.9910736083984375,-0.02789306640625,-0.1175689697265625
1713449318226749400,3.40574951171875,-0.9925537109375,-0.0262603759765625,-0.1173095703125
1713449318236823600,3.415823486328125,-0.9930419921875,-0.0270843505859375,-0.117523193359375
1713449318246896400,3.425896484375,-0.9918670654296875,-0.0278167724609375,-0.1195526123046875
1713449318256970500,3.435970458984375,-0.9902191162109375,-0.0264892578125,-0.1197357177734375
1713449318267043600,3.446043701171875,-0.99005126953125,-0.026397705078125,-0.1191864013671875
1713449318277117400,3.456117431640625,-0.9933013916015625,-0.02484130859375,-0.1194000244140625
1713449318287190500,3.4661904296875,-0.9929962158203125,-0.026702880859375,-0.1199951171875
1713449318297264600,3.4762646484375,-0.99066162109375,-0.027923583984375,-0.1200408935546875
1713449318307337500,3.48633740234375,-0.9896697998046875,-0.0255126953125,-0.1192626953125
1713449318317411300,3.496411376953125,-0.9908447265625,-0.0252838134765625,-0.1161651611328125
1713449318327485400,3.5064853515625,-0.9916229248046875,-0.0274658203125,-0.118927001953125
1713449318337558500,3.51655859375,-0.991790771484375,-0.0259857177734375,-0.119232177734375
1713449318347632400,3.52663232421875,-0.9916229248046875,-0.025543212890625,-0.1190948486328125
1713449318357705500,3.53670556640625,-0.9900665283203125,-0.0257568359375,-0.1168975830078125
1713449318367779600,3.546779541015625,-0.98919677734375,-0.0269622802734375,-0.1181640625
1713449318377852400,3.556852294921875,-0.9917755126953125,-0.026611328125,-0.116363525390625
1713449318387926500,3.566926513671875,-0.9914093017578125,-0.0267333984375,-0.116851806640625
1713449318397999600,3.57699951171875,-0.99078369140625,-0.0265045166015625,-0.1180877685546875
1713449318408073500,3.587073486328125,-0.989227294921875,-0.0263519287109375,-0.1167144775390625
1713449318418146300,3.597146240234375,-0.9903411865234375,-0.0261383056640625,-0.1163482666015625
1713449318428220400,3.607220458984375,-0.990203857421875,-0.0262298583984375,-0.1188201904296875
1713449318438293500,3.61729345703125,-0.992523193359375,-0.0265655517578125,-0.117706298828125
1713449318448367400,3.627367431640625,-0.9937591552734375,-0.0245819091796875,-0.119049072265625
1713449318458440400,3.6374404296875,-0.991485595703125,-0.0272674560546875,-0.1195831298828125
1713449318468514600,3.6475146484375,-0.98974609375,-0.0262298583984375,-0.1190185546875
1713449318478587400,3.65758740234375,-0.9917449951171875,-0.02569580078125,-0.118316650390625
1713449318488661500,3.66766162109375,-0.9930419921875,-0.0261993408203125,-0.1168670654296875
1713449318498735400,3.6777353515625,-0.9926605224609375,-0.026031494140625,-0.11712646484375
1713449318508808400,3.687808349609375,-0.990875244140625,-0.0260772705078125,-0.117584228515625
1713449318518882600,3.697882568359375,-0.9897308349609375,-0.0262603759765625,-0.117431640625
1713449318528955400,3.707955322265625,-0.991943359375,-0.0259246826171875,-0.118194580078125
1713449318539029200,3.718029296875,-0.9931182861328125,-0.0260009765625,-0.1181793212890625
1713449318549102600,3.7281025390625,-0.9933624267578125,-0.0267181396484375,-0.11737060546875
1713449318559176400,3.738176513671875,-0.9907989501953125,-0.0272979736328125,-0.11810302734375
1713449318569249300,3.748249267578125,-0.9903411865234375,-0.026031494140625,-0.117889404296875
1713449318579323600,3.75832373046875,-0.9913482666015625,-0.0273590087890625,-0.1201629638671875
1713449318589396500,3.768396484375,-0.993408203125,-0.02581787109375,-0.118072509765625
1713449318599470300,3.77847021484375,-0.9922943115234375,-0.0267333984375,-0.1184234619140625
1713449318609543700,3.788543701171875,-0.9903411865234375,-0.0262298583984375,-0.118011474609375
1713449318619617500,3.798617431640625,-0.9910888671875,-0.0260772705078125,-0.118255615234375
1713449318629691400,3.80869140625,-0.990234375,-0.0274658203125,-0.118072509765625
1713449318639764500,3.818764404296875,-0.9937744140625,-0.025482177734375,-0.1197967529296875
1713449318649838300,3.82883837890625,-0.990692138671875,-0.0267181396484375,-0.1177825927734375
1713449318659911400,3.838911376953125,-0.987945556640625,-0.0281219482421875,-0.1168975830078125
1713449318669985500,3.848985595703125,-0.9877166748046875,-0.027679443359375,-0.117340087890625
1713449318680058400,3.859058349609375,-0.9886474609375,-0.026702880859375,-0.1166839599609375
1713449318690132500,3.869132568359375,-0.989166259765625,-0.025421142578125,-0.1154022216796875
1713449318700205600,3.87920556640625,-0.991485595703125,-0.02655029296875,-0.115753173828125
1713449318710279400,3.889279541015625,-0.991851806640625,-0.026092529296875,-0.1144866943359375
1713449318720352500,3.8993525390625,-0.9924774169921875,-0.0263824462890625,-0.1186676025390625
1713449318730426600,3.909426513671875,-0.9873046875,-0.025482177734375,-0.1198577880859375
1713449318740499500,3.91949951171875,-0.985992431640625,-0.026153564453125,-0.11688232421875
1713449318750573300,3.9295732421875,-0.9907073974609375,-0.029144287109375,-0.115447998046875
1713449318760647000,3.93964697265625,-0.990478515625,-0.0299224853515625,-0.1129302978515625
1713449318770720800,3.949720703125,-0.9825897216796875,-0.0305938720703125,-0.1131744384765625
1713449318780795000,3.959794921875,-0.9755706787109375,-0.03228759765625,-0.117340087890625
1713449318790867700,3.96986767578125,-0.979888916015625,-0.0311279296875,-0.1182403564453125
1713449318800941800,3.97994189453125,-0.984466552734375,-0.0304107666015625,-0.118072509765625
1713449318811014700,3.9900146484375,-0.9875335693359375,-0.02685546875,-0.123779296875
1713449318821088800,4.0000888671875,-0.9891357421875,-0.02447509765625,-0.1256256103515625
1713449318831161900,4.010161865234375,-0.9921417236328125,-0.0210418701171875,-0.1319580078125
1713449318841236000,4.020236083984375,-0.997589111328125,-0.0218505859375,-0.135009765625
1713449318851308800,4.030308837890625,-1.0027313232421875,-0.022613525390625,-0.1352691650390625
1713449318861382700,4.040382568359375,-1.006561279296875,-0.024566650390625,-0.1365966796875
1713449318871455700,4.050455810546875,-1.006072998046875,-0.025543212890625,-0.1368255615234375
1713449318881529900,4.06052978515625,-1.0017852783203125,-0.0267333984375,-0.1367645263671875
1713449318891602700,4.070602783203125,-0.9988250732421875,-0.02716064453125,-0.134796142578125
1713449318901676500,4.080676513671875,-1.0017547607421875,-0.028778076171875,-0.13067626953125
1713449318911751000,4.0907509765625,-0.9971466064453125,-0.0279541015625,-0.127960205078125
1713449318921823700,4.10082373046875,-0.9929962158203125,-0.025238037109375,-0.1295013427734375
1713449318931897900,4.11089794921875,-0.9901123046875,-0.025543212890625,-0.1257781982421875
1713449318941971000,4.120970947265625,-0.9896087646484375,-0.0259552001953125,-0.125457763671875
1713449318952044800,4.131044921875,-0.9886016845703125,-0.0263671875,-0.1242828369140625
1713449318962117600,4.14111767578125,-0.98687744140625,-0.02740478515625,-0.120819091796875
1713449318972191700,4.151191650390625,-0.978790283203125,-0.0296173095703125,-0.1210784912109375
1713449318982264800,4.161264892578125,-0.977020263671875,-0.0274200439453125,-0.1210479736328125
1713449318992338700,4.171338623046875,-0.9849700927734375,-0.0280914306640625,-0.1232452392578125
1713449319002411800,4.181411865234375,-0.994964599609375,-0.0260467529296875,-0.12640380859375
1713449319012485600,4.191485595703125,-0.9976654052734375,-0.02484130859375,-0.1309814453125
1713449319022558700,4.201558837890625,-0.9947509765625,-0.0252685546875,-0.1316070556640625
1713449319032632800,4.2116328125,-0.98931884765625,-0.0272674560546875,-0.13153076171875
1713449319042705700,4.22170556640625,-0.985321044921875,-0.02679443359375,-0.1322479248046875
1713449319052779800,4.23177978515625,-0.9922637939453125,-0.0267791748046875,-0.1334381103515625
1713449319062854000,4.24185400390625,-1.0006866455078125,-0.0256195068359375,-0.1311492919921875
1713449319072926700,4.2519267578125,-0.9991302490234375,-0.0249481201171875,-0.1308441162109375
1713449319083000600,4.26200048828125,-0.99249267578125,-0.024993896484375,-0.1334228515625
1713449319093074000,4.272073974609375,-0.9927215576171875,-0.0242156982421875,-0.132476806640625
1713449319103147800,4.282147705078125,-1.0003509521484375,-0.0237274169921875,-0.130218505859375
1713449319113220600,4.292220703125,-0.9986114501953125,-0.0254974365234375,-0.126922607421875
1713449319123294700,4.302294677734375,-0.989959716796875,-0.0277252197265625,-0.125091552734375
1713449319133367800,4.312367919921875,-0.9790496826171875,-0.031005859375,-0.121612548828125
1713449319143441700,4.322441650390625,-0.9778900146484375,-0.03045654296875,-0.1190338134765625
1713449319153514800,4.3325146484375,-0.983642578125,-0.0302886962890625,-0.1234283447265625
1713449319163588900,4.3425888671875,-0.986480712890625,-0.027374267578125,-0.12701416015625
1713449319173661700,4.35266162109375,-0.988037109375,-0.0281219482421875,-0.1249847412109375
1713449319183735800,4.36273583984375,-0.99139404296875,-0.02996826171875,-0.121978759765625
1713449319193809700,4.3728095703125,-0.9924468994140625,-0.0322265625,-0.1213531494140625
1713449319203882800,4.3828828125,-0.9904022216796875,-0.03253173828125,-0.11956787109375
1713449319213956900,4.392956787109375,-0.986602783203125,-0.0337982177734375,-0.1202850341796875
1713449319224029700,4.40302978515625,-0.984649658203125,-0.0289306640625,-0.123291015625
1713449319234103600,4.413103515625,-0.983978271484375,-0.026153564453125,-0.1269073486328125
1713449319244177000,4.423177001953125,-0.9903106689453125,-0.0240020751953125,-0.126953125
1713449319254250800,4.433250732421875,-0.9971771240234375,-0.0248565673828125,-0.12548828125
1713449319264323600,4.443323486328125,-0.9967803955078125,-0.029693603515625,-0.1237640380859375
1713449319274398000,4.45339794921875,-0.9907379150390625,-0.0295867919921875,-0.1250152587890625
1713449319284470800,4.463470703125,-0.987457275390625,-0.028594970703125,-0.1266632080078125
1713449319294544600,4.473544677734375,-0.9856719970703125,-0.026947021484375,-0.1255340576171875
1713449319304618000,4.483617919921875,-0.993560791015625,-0.02410888671875,-0.1280975341796875
1713449319314691800,4.49369189453125,-1.0004730224609375,-0.0236053466796875,-0.13037109375
1713449319324764700,4.5037646484375,-0.9976654052734375,-0.0261993408203125,-0.12811279296875
1713449319334838800,4.5138388671875,-0.9912109375,-0.031005859375,-0.124725341796875
1713449319344912600,4.52391259765625,-0.9830474853515625,-0.0320281982421875,-0.1238555908203125
1713449319354985700,4.53398583984375,-0.9813079833984375,-0.0305328369140625,-0.1222076416015625
1713449319365059800,4.544059814453125,-0.9833831787109375,-0.0292205810546875,-0.1256103515625
1713449319375132700,4.554132568359375,-0.987060546875,-0.0271148681640625,-0.1269073486328125
1713449319385206800,4.564206787109375,-0.9918365478515625,-0.0263671875,-0.125640869140625
1713449319395280000,4.57427978515625,-0.9965667724609375,-0.0290679931640625,-0.124176025390625
1713449319405353700,4.584353759765625,-0.9935302734375,-0.029327392578125,-0.1255645751953125
1713449319415426800,4.5944267578125,-0.9875640869140625,-0.0281829833984375,-0.1290130615234375
1713449319425501000,4.6045009765625,-0.9866790771484375,-0.02587890625,-0.1256866455078125
1713449319435573800,4.61457373046875,-0.9865570068359375,-0.0272979736328125,-0.128814697265625
1713449319445647600,4.624647705078125,-0.985870361328125,-0.0265655517578125,-0.12860107421875
1713449319455720700,4.634720703125,-0.986541748046875,-0.02392578125,-0.133697509765625
1713449319465794800,4.644794921875,-0.9960479736328125,-0.024261474609375,-0.13360595703125
1713449319475868700,4.65486865234375,-0.999603271484375,-0.0270538330078125,-0.1305389404296875
1713449319485941800,4.664941650390625,-0.99920654296875,-0.0282745361328125,-0.1297760009765625
1713449319496016000,4.675015869140625,-0.9945068359375,-0.0298004150390625,-0.1265869140625
1713449319506088700,4.685088623046875,-0.98883056640625,-0.031890869140625,-0.1239776611328125
1713449319516162800,4.695162841796875,-0.990234375,-0.03192138671875,-0.12408447265625
1713449319526236000,4.70523583984375,-0.9926300048828125,-0.029327392578125,-0.1261138916015625
1713449319536309800,4.715309814453125,-0.99493408203125,-0.0262908935546875,-0.128662109375
1713449319546382600,4.725382568359375,-0.992584228515625,-0.0240020751953125,-0.1313323974609375
1713449319556456700,4.735456787109375,-0.9948883056640625,-0.0209808349609375,-0.13409423828125
1713449319566529800,4.74552978515625,-0.9998779296875,-0.0225677490234375,-0.1329193115234375
1713449319576603600,4.755603759765625,-1.0012969970703125,-0.0264129638671875,-0.13104248046875
1713449319586676700,4.7656767578125,-0.9968414306640625,-0.027099609375,-0.126007080078125
1713449319596750800,4.775750732421875,-0.9931488037109375,-0.0297698974609375,-0.124542236328125
1713449319606825000,4.785824951171875,-0.986083984375,-0.0295867919921875,-0.1258087158203125
1713449319616897800,4.795897705078125,-0.9882659912109375,-0.028564453125,-0.122161865234375
1713449319626971600,4.8059716796875,-0.9899139404296875,-0.0265655517578125,-0.123687744140625
1713449319637044700,4.816044677734375,-0.99151611328125,-0.0261688232421875,-0.1241455078125
1713449319647118800,4.826118896484375,-0.9891815185546875,-0.0270233154296875,-0.1231689453125
1713449319657191700,4.836191650390625,-0.986358642578125,-0.026947021484375,-0.121307373046875
1713449319667265500,4.846265625,-0.9886932373046875,-0.026885986328125,-0.1179962158203125
1713449319677339000,4.8563388671875,-0.989105224609375,-0.02813720703125,-0.1179962158203125
1713449319687412700,4.866412841796875,-0.98834228515625,-0.0286712646484375,-0.1201629638671875
1713449319697485600,4.876485595703125,-0.989166259765625,-0.0295867919921875,-0.1183319091796875
1713449319707560000,4.886559814453125,-0.98883056640625,-0.0284576416015625,-0.1185150146484375
1713449319717632800,4.8966328125,-0.9876708984375,-0.0305633544921875,-0.120819091796875
1713449319727706600,4.90670654296875,-0.9886627197265625,-0.0299072265625,-0.1214752197265625
1713449319737780700,4.91678076171875,-0.9904937744140625,-0.0298004150390625,-0.1210784912109375
1713449319747853800,4.926853759765625,-0.993804931640625,-0.02880859375,-0.1228485107421875
1713449319757926700,4.9369267578125,-0.990814208984375,-0.0236053466796875,-0.12200927734375
1713449319767999700,4.946999755859375,-0.986541748046875,-0.023223876953125,-0.1219024658203125
1713449319778073900,4.957073974609375,-0.983367919921875,-0.0242462158203125,-0.1215362548828125
1713449319788146700,4.967146728515625,-0.983123779296875,-0.0245513916015625,-0.119384765625
1713449319798220800,4.977220703125,-0.9875640869140625,-0.02447509765625,-0.119659423828125
1713449319808294000,4.9872939453125,-0.9877166748046875,-0.0236358642578125,-0.1209259033203125
1713449319818367700,4.99736767578125,-0.989501953125,-0.026824951171875,-0.1203765869140625
1713449319828440600,5.007440673828125,-0.9935760498046875,-0.0267486572265625,-0.122711181640625
1713449319838514700,5.0175146484375,-0.994293212890625,-0.0272674560546875,-0.123138427734375
1713449319848587800,5.027587890625,-0.99237060546875,-0.026123046875,-0.1204986572265625
1713449319858661600,5.03766162109375,-0.989044189453125,-0.026519775390625,-0.1154327392578125
1713449319868735700,5.04773583984375,-0.98846435546875,-0.026336669921875,-0.1136627197265625
1713449319878808800,5.057808837890625,-0.9906768798828125,-0.025177001953125,-0.115631103515625
1713449319888883000,5.067883056640625,-0.9946746826171875,-0.024932861328125,-0.118133544921875
1713449319898955800,5.077955810546875,-0.9924774169921875,-0.02435302734375,-0.1185302734375
1713449319909029600,5.088029541015625,-0.9893951416015625,-0.0282440185546875,-0.120941162109375
1713449319919102700,5.098102783203125,-0.987274169921875,-0.0283660888671875,-0.121124267578125
1713449319929176800,5.1081767578125,-0.99005126953125,-0.02996826171875,-0.1185760498046875
1713449319939249700,5.118249755859375,-0.9909515380859375,-0.0288238525390625,-0.119049072265625
1713449319949323800,5.12832373046875,-0.986907958984375,-0.0282745361328125,-0.11895751953125
1713449319959396900,5.13839697265625,-0.9848175048828125,-0.030242919921875,-0.1165313720703125
1713449319969470700,5.148470703125,-0.9868316650390625,-0.030517578125,-0.114471435546875
1713449319979544800,5.158544921875,-0.995086669921875,-0.02667236328125,-0.1146087646484375
1713449319989618000,5.168617919921875,-0.9975738525390625,-0.02825927734375,-0.117919921875
1713449319999691800,5.17869189453125,-0.99432373046875,-0.0263671875,-0.125640869140625
1713449320009764600,5.1887646484375,-0.9925079345703125,-0.024322509765625,-0.1256866455078125
1713449320019838700,5.198838623046875,-0.9954833984375,-0.0222930908203125,-0.1262359619140625
1713449320029911800,5.208911865234375,-1.00018310546875,-0.02276611328125,-0.1279754638671875
1713449320039985700,5.218985595703125,-0.995452880859375,-0.0222625732421875,-0.1284637451171875
1713449320050058800,5.229058837890625,-0.989837646484375,-0.0252685546875,-0.1260833740234375
1713449320060132900,5.2391328125,-0.9862060546875,-0.0252227783203125,-0.122711181640625
1713449320070205700,5.249205810546875,-0.992431640625,-0.0261993408203125,-0.1196746826171875
1713449320080279800,5.25927978515625,-0.9970855712890625,-0.0275115966796875,-0.117431640625
1713449320090353000,5.269352783203125,-0.9986572265625,-0.029144287109375,-0.120819091796875
1713449320100426800,5.2794267578125,-0.990753173828125,-0.028656005859375,-0.1243896484375
1713449320110500900,5.2895009765625,-0.988006591796875,-0.02740478515625,-0.129638671875
1713449320120573700,5.29957373046875,-0.98956298828125,-0.0253143310546875,-0.129547119140625
1713449320130647600,5.3096474609375,-0.9956207275390625,-0.0232696533203125,-0.1291351318359375
1713449320140721000,5.319720947265625,-0.9975433349609375,-0.0223846435546875,-0.128631591796875
1713449320150794800,5.329794677734375,-0.991546630859375,-0.0229644775390625,-0.126068115234375
1713449320160867600,5.33986767578125,-0.9878997802734375,-0.0265350341796875,-0.123779296875
1713449320170942000,5.34994189453125,-0.989898681640625,-0.0269012451171875,-0.1240997314453125
1713449320181014800,5.360014892578125,-0.991485595703125,-0.0249786376953125,-0.1237945556640625
1713449320191088600,5.370088623046875,-0.990478515625,-0.0280303955078125,-0.12335205078125
1713449320201162000,5.380161865234375,-0.9867706298828125,-0.029632568359375,-0.123046875
1713449320211235800,5.39023583984375,-0.985015869140625,-0.0301055908203125,-0.122589111328125
1713449320221308700,5.40030859375,-0.987823486328125,-0.030731201171875,-0.1217041015625
1713449320231382800,5.4103828125,-0.9866180419921875,-0.0326080322265625,-0.118927001953125
1713449320241456600,5.42045654296875,-0.988067626953125,-0.0346221923828125,-0.11962890625
1713449320251529700,5.43052978515625,-0.9898223876953125,-0.0325164794921875,-0.121337890625
1713449320261603800,5.440603759765625,-0.98980712890625,-0.0335235595703125,-0.121673583984375
1713449320271676700,5.4506767578125,-0.98681640625,-0.0333099365234375,-0.1215667724609375
1713449320281750800,5.460750732421875,-0.98919677734375,-0.0330657958984375,-0.1195220947265625
1713449320291823900,5.470823974609375,-0.988983154296875,-0.02874755859375,-0.1184234619140625
1713449320301897700,5.480897705078125,-0.988616943359375,-0.028900146484375,-0.1210479736328125
1713449320311970800,5.490970703125,-0.990509033203125,-0.027130126953125,-0.1226806640625
1713449320322045000,5.501044921875,-0.9920196533203125,-0.027252197265625,-0.1224517822265625
1713449320332117800,5.51111767578125,-0.99664306640625,-0.027099609375,-0.1217193603515625
1713449320342191600,5.521191650390625,-0.9948577880859375,-0.0278472900390625,-0.119049072265625
1713449320352265000,5.531264892578125,-0.99114990234375,-0.027557373046875,-0.11956787109375
1713449320362338800,5.5413388671875,-0.9912261962890625,-0.027008056640625,-0.12371826171875
1713449320372412700,5.55141259765625,-0.9921417236328125,-0.026641845703125,-0.1228179931640625
1713449320382485800,5.56148583984375,-0.989898681640625,-0.0256500244140625,-0.1208648681640625
1713449320392559900,5.571559814453125,-0.994110107421875,-0.0252227783203125,-0.1209869384765625
1713449320402632700,5.5816328125,-0.994964599609375,-0.026214599609375,-0.12054443359375
1713449320412706800,5.591706787109375,-0.99053955078125,-0.029632568359375,-0.1224365234375
1713449320422780000,5.60177978515625,-0.98809814453125,-0.030609130859375,-0.122344970703125
1713449320432853800,5.611853759765625,-0.9889984130859375,-0.0292205810546875,-0.1217498779296875
1713449320442926800,5.6219267578125,-0.9923248291015625,-0.0285797119140625,-0.1190185546875
1713449320453000700,5.632000732421875,-0.99395751953125,-0.027252197265625,-0.119415283203125
1713449320463073800,5.64207373046875,-0.9903411865234375,-0.0312652587890625,-0.12005615234375
1713449320473148000,5.65214794921875,-0.987518310546875,-0.0302276611328125,-0.119964599609375
1713449320483221800,5.6622216796875,-0.989105224609375,-0.0281982421875,-0.1186981201171875
1713449320493294600,5.672294677734375,-0.99468994140625,-0.0301971435546875,-0.118804931640625
1713449320503369000,5.682368896484375,-0.9884033203125,-0.030853271484375,-0.11712646484375
1713449320513441800,5.69244189453125,-0.9857177734375,-0.0337371826171875,-0.1161041259765625
1713449320523515600,5.702515625,-0.9854736328125,-0.033355712890625,-0.1138763427734375
1713449320533588700,5.712588623046875,-0.9871063232421875,-0.030303955078125,-0.113739013671875
1713449320543662800,5.722662841796875,-0.9915008544921875,-0.03302001953125,-0.11285400390625
1713449320553735700,5.732735595703125,-0.9894256591796875,-0.0294189453125,-0.1154022216796875
1713449320563809800,5.742809814453125,-0.99066162109375,-0.0294342041015625,-0.1168060302734375
1713449320573883000,5.7528828125,-0.9921417236328125,-0.0306854248046875,-0.118865966796875
1713449320583956700,5.762956787109375,-0.9918365478515625,-0.0294189453125,-0.119110107421875
1713449320594029600,5.773029541015625,-0.9924468994140625,-0.0323333740234375,-0.1208038330078125
1713449320604103700,5.783103759765625,-0.9912567138671875,-0.0302886962890625,-0.12091064453125
1713449320614177800,5.793177734375,-0.989105224609375,-0.030029296875,-0.122711181640625
1713449320624250600,5.803250732421875,-0.9897613525390625,-0.02978515625,-0.1266326904296875
1713449320634324700,5.81332470703125,-0.991241455078125,-0.027252197265625,-0.1264190673828125
1713449320644397800,5.823397705078125,-0.99688720703125,-0.0270843505859375,-0.126617431640625
1713449320654472000,5.833471923828125,-0.9994964599609375,-0.025054931640625,-0.12860107421875
1713449320664544800,5.843544677734375,-0.99798583984375,-0.027679443359375,-0.12542724609375
1713449320674618600,5.85361865234375,-0.9925537109375,-0.028106689453125,-0.1232452392578125
1713449320684691700,5.863691650390625,-0.9878082275390625,-0.029388427734375,-0.1211700439453125
1713449320694765800,5.873765869140625,-0.98870849609375,-0.0304718017578125,-0.1192779541015625
1713449320704838700,5.883838623046875,-0.989898681640625,-0.0305023193359375,-0.119720458984375
1713449320714912800,5.893912841796875,-0.9888916015625,-0.0302581787109375,-0.118194580078125
1713449320724987000,5.90398681640625,-0.9859771728515625,-0.02734375,-0.1212158203125
1713449320735059700,5.914059814453125,-0.9866180419921875,-0.0274200439453125,-0.120208740234375
1713449320745133800,5.9241337890625,-0.99267578125,-0.02960205078125,-0.1204071044921875
1713449320755207200,5.934207275390625,-0.9933013916015625,-0.0285797119140625,-0.121734619140625
1713449320765281000,5.944281005859375,-0.991546630859375,-0.0296630859375,-0.121612548828125
1713449320775353900,5.954353759765625,-0.98468017578125,-0.02996826171875,-0.12152099609375
1713449320785428000,5.964427978515625,-0.986572265625,-0.029388427734375,-0.118255615234375
1713449320795501000,5.9745009765625,-0.992828369140625,-0.027313232421875,-0.11981201171875
1713449320805575000,5.984574951171875,-0.997283935546875,-0.0273284912109375,-0.1202850341796875
1713449320815648000,5.99464794921875,-0.9919281005859375,-0.0319061279296875,-0.121856689453125
1713449320825721900,6.004721923828125,-0.9857330322265625,-0.029266357421875,-0.122314453125
1713449320835796000,6.0147958984375,-0.9907684326171875,-0.028228759765625,-0.119964599609375
1713449320845869000,6.024869140625,-0.9962921142578125,-0.0277557373046875,-0.1203155517578125
1713449320855943000,6.03494287109375,-0.994140625,-0.0283050537109375,-0.12274169921875
1713449320866016000,6.04501611328125,-0.9902801513671875,-0.028106689453125,-0.123779296875
1713449320876090000,6.055090087890625,-0.9912109375,-0.0293121337890625,-0.12286376953125
1713449320886163000,6.065162841796875,-0.99224853515625,-0.028411865234375,-0.1216278076171875
1713449320896236800,6.07523681640625,-0.9938812255859375,-0.0288238525390625,-0.121612548828125
1713449320906310100,6.08531005859375,-0.993438720703125,-0.02728271484375,-0.1199951171875
1713449320916384000,6.095384033203125,-0.9905242919921875,-0.02960205078125,-0.1206512451171875
1713449320926456800,6.105456787109375,-0.988250732421875,-0.02978515625,-0.1192474365234375
1713449320936531000,6.115531005859375,-0.988739013671875,-0.029449462890625,-0.11944580078125
1713449320946605000,6.12560498046875,-0.9897308349609375,-0.0297698974609375,-0.11822509765625
1713449320956678000,6.135677978515625,-0.9891815185546875,-0.0291900634765625,-0.120513916015625
1713449320966752000,6.145751953125,-0.9918975830078125,-0.02642822265625,-0.12091064453125
1713449320976825000,6.1558251953125,-0.99298095703125,-0.0274658203125,-0.1189727783203125
1713449320986899000,6.16589892578125,-0.988555908203125,-0.030731201171875,-0.121612548828125
1713449320996972000,6.175971923828125,-0.9859619140625,-0.028961181640625,-0.121246337890625
1713449321007046000,6.1860458984375,-0.991058349609375,-0.028167724609375,-0.122833251953125
1713449321017119000,6.196118896484375,-0.9913482666015625,-0.0307464599609375,-0.1221923828125
1713449321027193000,6.206193115234375,-0.9878387451171875,-0.0294036865234375,-0.122100830078125
1713449321037266000,6.216265869140625,-0.9868011474609375,-0.0269927978515625,-0.1218719482421875
1713449321047340000,6.226340087890625,-0.99127197265625,-0.029449462890625,-0.1204681396484375
1713449321057412900,6.236412841796875,-0.98944091796875,-0.0274810791015625,-0.1210784912109375
1713449321067487000,6.246487060546875,-0.99530029296875,-0.0266571044921875,-0.1220855712890625
1713449321077560800,6.256560791015625,-0.9964447021484375,-0.025177001953125,-0.122955322265625
1713449321087634200,6.26663427734375,-0.99493408203125,-0.0279083251953125,-0.12200927734375
1713449321097708000,6.2767080078125,-0.9958953857421875,-0.0291900634765625,-0.1225433349609375
1713449321107780900,6.28678076171875,-0.992919921875,-0.029327392578125,-0.124114990234375
1713449321117855000,6.29685498046875,-0.9950103759765625,-0.028564453125,-0.12353515625
1713449321127928000,6.306927978515625,-0.9948883056640625,-0.0291900634765625,-0.1224517822265625
1713449321138002000,6.317001953125,-0.988525390625,-0.027984619140625,-0.1236572265625
1713449321148074800,6.32707470703125,-0.988555908203125,-0.0266265869140625,-0.1275634765625
1713449321158149000,6.337149169921875,-0.9906768798828125,-0.02734375,-0.1242523193359375
1713449321168222000,6.347221923828125,-0.99053955078125,-0.02740478515625,-0.1217498779296875
1713449321178296000,6.357296142578125,-0.9880523681640625,-0.025054931640625,-0.1219940185546875
1713449321188370000,6.367369873046875,-0.9878387451171875,-0.0267181396484375,-0.1183013916015625
1713449321198443000,6.377443115234375,-0.9876708984375,-0.0282440185546875,-0.12017822265625
1713449321208517000,6.38751708984375,-0.991119384765625,-0.0268096923828125,-0.1190948486328125
1713449321218590000,6.39758984375,-0.9934539794921875,-0.02630615234375,-0.121490478515625
1713449321228663800,6.407663818359375,-0.9906005859375,-0.029754638671875,-0.1213531494140625
1713449321238737000,6.41773681640625,-0.990325927734375,-0.0267486572265625,-0.1225738525390625
1713449321248811000,6.42781103515625,-0.9906768798828125,-0.02728271484375,-0.123199462890625
1713449321258883800,6.4378837890625,-0.989715576171875,-0.0280914306640625,-0.1229095458984375
1713449321268958200,6.447958251953125,-0.9904022216796875,-0.0294036865234375,-0.121551513671875
1713449321279031000,6.458031005859375,-0.99066162109375,-0.029144287109375,-0.122161865234375
1713449321289105000,6.46810498046875,-0.989410400390625,-0.026275634765625,-0.12371826171875
1713449321299179000,6.478178955078125,-0.9918975830078125,-0.0277099609375,-0.123199462890625
1713449321309252000,6.488252197265625,-0.993377685546875,-0.0275421142578125,-0.1220855712890625
1713449321319326000,6.498325927734375,-0.9969940185546875,-0.0267791748046875,-0.1215057373046875
1713449321329398800,6.508398681640625,-0.9949188232421875,-0.028717041015625,-0.12255859375
1713449321339473000,6.518472900390625,-0.9912567138671875,-0.029541015625,-0.121856689453125
1713449321349546000,6.5285458984375,-0.9878082275390625,-0.02899169921875,-0.12109375
1713449321359619800,6.538619873046875,-0.990325927734375,-0.028106689453125,-0.121734619140625
1713449321369693000,6.54869287109375,-0.992523193359375,-0.027435302734375,-0.1205902099609375
1713449321379767000,6.55876708984375,-0.9930267333984375,-0.027374267578125,-0.1202545166015625
1713449321389840000,6.56883984375,-0.9914093017578125,-0.0266876220703125,-0.1211395263671875
1713449321399914000,6.5789140625,-0.9879913330078125,-0.0284423828125,-0.1225738525390625
1713449321409987800,6.58898779296875,-0.99127197265625,-0.02716064453125,-0.1217041015625
1713449321420061000,6.59906103515625,-0.992584228515625,-0.0263671875,-0.1201019287109375
1713449321430135000,6.609135009765625,-0.992156982421875,-0.0276641845703125,-0.122467041015625
1713449321440208000,6.619207763671875,-0.9898834228515625,-0.028350830078125,-0.121429443359375
1713449321450282000,6.629281982421875,-0.985626220703125,-0.0279388427734375,-0.120208740234375
1713449321460355000,6.63935498046875,-0.9895782470703125,-0.0281982421875,-0.120452880859375
1713449321470429000,6.649428955078125,-0.99383544921875,-0.026336669921875,-0.1201171875
1713449321480502000,6.659501953125,-0.99285888671875,-0.027740478515625,-0.1222076416015625
1713449321490576100,6.669576171875,-0.99078369140625,-0.02801513671875,-0.1226043701171875
1713449321500649000,6.67964892578125,-0.990203857421875,-0.0280609130859375,-0.1217498779296875
1713449321510722800,6.689722900390625,-0.991302490234375,-0.0272369384765625,-0.120361328125
1713449321520797000,6.699796875,-0.994415283203125,-0.02764892578125,-0.1218414306640625
1713449321530870000,6.7098701171875,-0.9931640625,-0.0279998779296875,-0.121185302734375
1713449321540944000,6.71994384765625,-0.99188232421875,-0.029266357421875,-0.121429443359375
1713449321551017000,6.730016845703125,-0.9904327392578125,-0.0264892578125,-0.1212921142578125
1713449321561091000,6.740091064453125,-0.990692138671875,-0.0262908935546875,-0.1241302490234375
1713449321571164000,6.750163818359375,-0.992431640625,-0.026275634765625,-0.12518310546875
1713449321581238000,6.760238037109375,-0.9933013916015625,-0.02752685546875,-0.1226806640625
1713449321591311000,6.77031103515625,-0.99017333984375,-0.028656005859375,-0.119354248046875
1713449321601385000,6.780385009765625,-0.9889373779296875,-0.0294342041015625,-0.1186676025390625
1713449321611458000,6.7904580078125,-0.98992919921875,-0.028411865234375,-0.12091064453125
1713449321621532000,6.800531982421875,-0.9929962158203125,-0.0284271240234375,-0.1213531494140625
1713449321631605800,6.810605712890625,-0.9928131103515625,-0.0276641845703125,-0.1196746826171875
1713449321641679000,6.82067919921875,-0.9903411865234375,-0.0273590087890625,-0.1217041015625
1713449321651753000,6.8307529296875,-0.9914093017578125,-0.0277862548828125,-0.12164306640625
1713449321661825800,6.84082568359375,-0.9913482666015625,-0.030975341796875,-0.1235198974609375
1713449321671900200,6.850900146484375,-0.989227294921875,-0.0289306640625,-0.1199951171875
1713449321681973000,6.860972900390625,-0.9937744140625,-0.0284423828125,-0.1189727783203125
1713449321692046800,6.871046875,-0.9958953857421875,-0.0259857177734375,-0.1199493408203125
1713449321702120200,6.8811201171875,-0.9915924072265625,-0.0271453857421875,-0.1211090087890625
1713449321712194000,6.891194091796875,-0.9892425537109375,-0.027008056640625,-0.1218414306640625
1713449321722267000,6.901266845703125,-0.99395751953125,-0.026153564453125,-0.12066650390625
1713449321732341000,6.911341064453125,-0.996185302734375,-0.0272216796875,-0.121795654296875
1713449321742414800,6.921414794921875,-0.991302490234375,-0.02728271484375,-0.122772216796875
1713449321752488000,6.931488037109375,-0.9869384765625,-0.027618408203125,-0.1213836669921875
1713449321762562600,6.9415625,-0.98638916015625,-0.028656005859375,-0.1219024658203125
1713449321772635400,6.951635498046875,-0.9900360107421875,-0.02978515625,-0.1189422607421875
1713449321782709200,6.961709228515625,-0.990020751953125,-0.0290069580078125,-0.1197967529296875
1713449321792782600,6.971782470703125,-0.989044189453125,-0.028228759765625,-0.1201934814453125
1713449321802856400,6.9818564453125,-0.98675537109375,-0.0265655517578125,-0.1219940185546875
1713449321812929300,6.99192919921875,-0.9898834228515625,-0.028411865234375,-0.122222900390625
1713449321823003600,7.002003662109375,-0.993988037109375,-0.0252227783203125,-0.121307373046875
1713449321833077500,7.012077392578125,-0.994873046875,-0.0250244140625,-0.121002197265625
1713449321843150300,7.022150390625,-0.99151611328125,-0.0282745361328125,-0.1217803955078125
1713449321853224400,7.032224365234375,-0.98858642578125,-0.02703857421875,-0.12139892578125
1713449321863297500,7.042297607421875,-0.992889404296875,-0.028167724609375,-0.12127685546875
1713449321873371400,7.052371337890625,-0.995208740234375,-0.027313232421875,-0.1205291748046875
1713449321883444500,7.062444580078125,-0.991912841796875,-0.025604248046875,-0.120819091796875
1713449321893518300,7.072518310546875,-0.9906768798828125,-0.026153564453125,-0.1189117431640625
1713449321903591400,7.08259130859375,-0.9908905029296875,-0.02593994140625,-0.1206207275390625
1713449321913665500,7.09266552734375,-0.990753173828125,-0.0294189453125,-0.1209716796875
1713449321923738400,7.10273828125,-0.9930267333984375,-0.0279083251953125,-0.1193389892578125
1713449321933812500,7.1128125,-0.9929046630859375,-0.0265350341796875,-0.120880126953125
1713449321943886600,7.122886474609375,-0.9930267333984375,-0.0282440185546875,-0.12115478515625
1713449321953959400,7.13295947265625,-0.9900970458984375,-0.02783203125,-0.121734619140625
1713449321964033300,7.143033203125,-0.9906005859375,-0.027862548828125,-0.1214599609375
1713449321974106600,7.153106689453125,-0.9916839599609375,-0.02783203125,-0.121063232421875
1713449321984180500,7.163180419921875,-0.9930572509765625,-0.0272216796875,-0.1208343505859375
1713449321994253300,7.17325341796875,-0.991241455078125,-0.027557373046875,-0.1227569580078125
1713449322004327400,7.183327392578125,-0.9904022216796875,-0.027496337890625,-0.1200408935546875
1713449322014400500,7.193400390625,-0.9901580810546875,-0.0269622802734375,-0.11920166015625
1713449322024474400,7.203474365234375,-0.990325927734375,-0.02691650390625,-0.120452880859375
1713449322034547500,7.21354736328125,-0.992523193359375,-0.0263824462890625,-0.1204833984375
1713449322044621600,7.22362158203125,-0.994384765625,-0.026123046875,-0.1202545166015625
1713449322054695400,7.2336953125,-0.991424560546875,-0.0267486572265625,-0.121002197265625
1713449322064768500,7.2437685546875,-0.988677978515625,-0.02728271484375,-0.11956787109375
1713449322074842400,7.25384228515625,-0.989044189453125,-0.0277252197265625,-0.1206512451171875
1713449322084915500,7.26391552734375,-0.9883575439453125,-0.0289306640625,-0.1180572509765625
1713449322094989600,7.273989501953125,-0.9889678955078125,-0.0282135009765625,-0.1192474365234375
1713449322105062400,7.2840625,-0.9918060302734375,-0.0267333984375,-0.1208343505859375
1713449322115136500,7.294136474609375,-0.9894866943359375,-0.0280303955078125,-0.120758056640625
1713449322125209600,7.304209716796875,-0.98822021484375,-0.0266265869140625,-0.1210784912109375
1713449322135283500,7.314283447265625,-0.989593505859375,-0.0269012451171875,-0.119720458984375
1713449322145356500,7.3243564453125,-0.993499755859375,-0.027099609375,-0.1218414306640625
1713449322155430700,7.3344306640625,-0.992889404296875,-0.026336669921875,-0.1208343505859375
1713449322165504500,7.34450439453125,-0.9917449951171875,-0.0271453857421875,-0.12164306640625
1713449322175577300,7.354577392578125,-0.988189697265625,-0.026580810546875,-0.1223297119140625
1713449322185651500,7.3646513671875,-0.9918060302734375,-0.0265960693359375,-0.1178436279296875
1713449322195724500,7.374724609375,-0.9943084716796875,-0.02703857421875,-0.11810302734375
1713449322205798400,7.38479833984375,-0.9931640625,-0.0274200439453125,-0.122039794921875
1713449322215871500,7.39487158203125,-0.9896697998046875,-0.0262603759765625,-0.1194000244140625
1713449322225945600,7.404945556640625,-0.9897613525390625,-0.0267791748046875,-0.118560791015625
1713449322236018400,7.415018310546875,-0.9925689697265625,-0.02728271484375,-0.118560791015625
1713449322246092500,7.425092529296875,-0.9944610595703125,-0.028045654296875,-0.11773681640625
1713449322256166400,7.43516650390625,-0.9917755126953125,-0.0290679931640625,-0.1183013916015625
1713449322266239500,7.445239501953125,-0.9882049560546875,-0.02642822265625,-0.117950439453125
1713449322276313600,7.455313720703125,-0.9886932373046875,-0.0279083251953125,-0.11962890625
1713449322286386400,7.465386474609375,-0.992401123046875,-0.0275115966796875,-0.119049072265625
1713449322296460300,7.475460205078125,-0.993072509765625,-0.0280914306640625,-0.121795654296875
1713449322306533600,7.48553369140625,-0.990234375,-0.026702880859375,-0.12176513671875
1713449322316607500,7.495607421875,-0.9871978759765625,-0.02679443359375,-0.1214599609375
1713449322326680300,7.505680419921875,-0.9905548095703125,-0.0283050537109375,-0.1198272705078125
1713449322336754700,7.515754638671875,-0.9912872314453125,-0.02734375,-0.1206207275390625
1713449322346827500,7.52582763671875,-0.99200439453125,-0.02783203125,-0.1207122802734375
1713449322356901400,7.5359013671875,-0.992156982421875,-0.0272979736328125,-0.11968994140625
1713449322366975500,7.5459755859375,-0.9915924072265625,-0.026641845703125,-0.1219940185546875
1713449322377048600,7.556048583984375,-0.9905548095703125,-0.026947021484375,-0.121490478515625
1713449322387122400,7.566122314453125,-0.99176025390625,-0.02740478515625,-0.11859130859375
1713449322397195500,7.576195556640625,-0.9929046630859375,-0.027740478515625,-0.118011474609375
1713449322407269400,7.586269287109375,-0.9906158447265625,-0.02752685546875,-0.118499755859375
1713449322417342500,7.596342529296875,-0.9904632568359375,-0.0269775390625,-0.1196136474609375
1713449322427416600,7.60641650390625,-0.9897613525390625,-0.0269012451171875,-0.1213836669921875
1713449322437489400,7.616489501953125,-0.9898834228515625,-0.026641845703125,-0.1206512451171875
1713449322447563500,7.6265634765625,-0.99224853515625,-0.027252197265625,-0.118072509765625
1713449322457636400,7.63663623046875,-0.9936370849609375,-0.0266571044921875,-0.119476318359375
1713449322467710500,7.64671044921875,-0.9913787841796875,-0.0257415771484375,-0.1212005615234375
1713449322477784300,7.656784423828125,-0.9894866943359375,-0.02655029296875,-0.1192779541015625
1713449322487857700,7.666857666015625,-0.989837646484375,-0.026885986328125,-0.121429443359375
1713449322497931500,7.676931640625,-0.9925384521484375,-0.0284423828125,-0.120330810546875
1713449322508004400,7.68700439453125,-0.9912261962890625,-0.0267486572265625,-0.119415283203125
1713449322518078500,7.697078369140625,-0.989959716796875,-0.027313232421875,-0.1208343505859375
1713449322528151600,7.707151611328125,-0.989410400390625,-0.0275421142578125,-0.1193389892578125
1713449322538225400,7.717225341796875,-0.9914093017578125,-0.0279388427734375,-0.1205596923828125
1713449322548298200,7.72729833984375,-0.99310302734375,-0.0274810791015625,-0.1207122802734375
1713449322558372600,7.73737255859375,-0.994903564453125,-0.026123046875,-0.1182403564453125
1713449322568445400,7.747445556640625,-0.99664306640625,-0.026214599609375,-0.1202239990234375
1713449322578519600,7.75751953125,-0.990478515625,-0.0280914306640625,-0.119049072265625
1713449322588593400,7.767593505859375,-0.985504150390625,-0.026519775390625,-0.120452880859375
1713449322598666500,7.77766650390625,-0.9917449951171875,-0.0264434814453125,-0.11907958984375
1713449322608740600,7.78774072265625,-0.9952850341796875,-0.0277862548828125,-0.119354248046875
1713449322618813400,7.7978134765625,-0.991790771484375,-0.02801513671875,-0.12109375
1713449322628887300,7.80788720703125,-0.986846923828125,-0.0274505615234375,-0.1184539794921875
1713449322638960400,7.81796044921875,-0.98944091796875,-0.0271148681640625,-0.11920166015625
1713449322649034500,7.828034423828125,-0.992706298828125,-0.027557373046875,-0.12017822265625
1713449322659107300,7.838107421875,-0.9953460693359375,-0.0280303955078125,-0.1179962158203125
1713449322669181700,7.848181640625,-0.99176025390625,-0.0297393798828125,-0.1190338134765625
1713449322679255600,7.858255615234375,-0.985992431640625,-0.02838134765625,-0.12115478515625
1713449322689328400,7.868328369140625,-0.9917449951171875,-0.0273895263671875,-0.119293212890625
1713449322699402500,7.878402587890625,-0.993072509765625,-0.026336669921875,-0.119964599609375
1713449322709475600,7.8884755859375,-0.99322509765625,-0.027099609375,-0.1193389892578125
1713449322719549400,7.898549560546875,-0.9904022216796875,-0.0279998779296875,-0.120941162109375
1713449322729622300,7.908622314453125,-0.9879913330078125,-0.027099609375,-0.1221466064453125
1713449322739696400,7.9186962890625,-0.990325927734375,-0.027130126953125,-0.119476318359375
1713449322749769500,7.92876953125,-0.9928131103515625,-0.0262451171875,-0.119873046875
1713449322759844000,7.938843994140625,-0.9925537109375,-0.0260162353515625,-0.1190185546875
1713449322769917200,7.948917236328125,-0.9905853271484375,-0.026519775390625,-0.120635986328125
1713449322779991000,7.958990966796875,-0.9900054931640625,-0.027587890625,-0.1207427978515625
1713449322790065200,7.969065185546875,-0.9901275634765625,-0.02825927734375,-0.1179046630859375
1713449322800138200,7.97913818359375,-0.9928741455078125,-0.02752685546875,-0.1173858642578125
1713449322810212000,7.989212158203125,-0.9925537109375,-0.028411865234375,-0.11993408203125
1713449322820285200,7.99928515625,-0.9901275634765625,-0.027740478515625,-0.11968994140625
1713449322830359300,8.009359375,-0.9881439208984375,-0.028167724609375,-0.1201171875
1713449322840432000,8.01943212890625,-0.9882354736328125,-0.027557373046875,-0.12054443359375
1713449322850506000,8.029506103515626,-0.9939422607421875,-0.02734375,-0.119049072265625
1713449322860579300,8.039579345703125,-0.9941558837890625,-0.0266876220703125,-0.122283935546875
1713449322870653200,8.049653076171875,-0.994110107421875,-0.027679443359375,-0.11962890625
1713449322880727000,8.05972705078125,-0.9929351806640625,-0.0275421142578125,-0.12005615234375
1713449322890800000,8.069800048828125,-0.99078369140625,-0.028228759765625,-0.1179656982421875
1713449322900874200,8.079874267578125,-0.9868621826171875,-0.0289154052734375,-0.12017822265625
1713449322910947000,8.089947021484376,-0.99444580078125,-0.027435302734375,-0.1195526123046875
1713449322921021200,8.100021240234375,-0.99359130859375,-0.028778076171875,-0.1199951171875
1713449322931094300,8.11009423828125,-0.9890899658203125,-0.0303802490234375,-0.120513916015625
1713449322941168000,8.120168212890626,-0.988861083984375,-0.0288238525390625,-0.120208740234375
1713449322951241200,8.1302412109375,-0.9886016845703125,-0.029083251953125,-0.116668701171875
1713449322961315000,8.140315185546875,-0.9930572509765625,-0.0267791748046875,-0.118377685546875
1713449322971388200,8.15038818359375,-0.9920196533203125,-0.0276947021484375,-0.1193695068359375
1713449322981462300,8.160462158203124,-0.988128662109375,-0.0274505615234375,-0.11834716796875
1713449322991536000,8.1705361328125,-0.9897613525390625,-0.0253448486328125,-0.119537353515625
1713449323001609000,8.18060888671875,-0.9908294677734375,-0.02679443359375,-0.120391845703125
1713449323011683300,8.190683349609374,-0.996337890625,-0.0283355712890625,-0.121063232421875
1713449323021756200,8.200756103515625,-0.99700927734375,-0.0275115966796875,-0.1217041015625
1713449323031830000,8.210830078125,-0.9912261962890625,-0.0276947021484375,-0.1197052001953125
1713449323041903400,8.2209033203125,-0.986663818359375,-0.0292510986328125,-0.120391845703125
1713449323051977200,8.230977294921875,-0.98883056640625,-0.0294952392578125,-0.12042236328125
1713449323062050000,8.241050048828125,-0.992645263671875,-0.029449462890625,-0.117828369140625
1713449323072124200,8.251124267578126,-0.990753173828125,-0.0266571044921875,-0.1179351806640625
1713449323082198000,8.261197998046875,-0.9891510009765625,-0.026336669921875,-0.1202545166015625
1713449323092271000,8.27127099609375,-0.989990234375,-0.026702880859375,-0.1217803955078125
1713449323102345200,8.28134521484375,-0.9929351806640625,-0.0272979736328125,-0.121307373046875
1713449323112418000,8.29141796875,-0.9944610595703125,-0.027069091796875,-0.1200408935546875
1713449323122492200,8.3014921875,-0.993621826171875,-0.0289306640625,-0.1188201904296875
1713449323132565200,8.311565185546876,-0.9910736083984375,-0.0290985107421875,-0.1172027587890625
1713449323142639000,8.32163916015625,-0.9901275634765625,-0.0294647216796875,-0.1162567138671875
1713449323152712200,8.331712158203125,-0.989715576171875,-0.0304718017578125,-0.1176910400390625
1713449323162786300,8.341786376953126,-0.987701416015625,-0.0291290283203125,-0.118865966796875
1713449323172859100,8.351859130859374,-0.9905548095703125,-0.027099609375,-0.119659423828125
1713449323182933000,8.36193310546875,-0.99432373046875,-0.0272674560546875,-0.119415283203125
1713449323193007000,8.372007080078125,-0.992462158203125,-0.028106689453125,-0.1202239990234375
1713449323203080200,8.382080078125,-0.9905242919921875,-0.0272064208984375,-0.12017822265625
1713449323213154000,8.392154052734375,-0.9888153076171875,-0.028533935546875,-0.118988037109375
1713449323223227100,8.40222705078125,-0.9931182861328125,-0.0283355712890625,-0.120025634765625
1713449323233301200,8.41230126953125,-0.990478515625,-0.0289306640625,-0.120391845703125
1713449323243374000,8.4223740234375,-0.9889984130859375,-0.0300750732421875,-0.1198883056640625
1713449323253448200,8.4324482421875,-0.988525390625,-0.028350830078125,-0.1198272705078125
1713449323263521300,8.442521240234376,-0.9917449951171875,-0.028961181640625,-0.121490478515625
1713449323273595100,8.45259521484375,-0.9938201904296875,-0.02764892578125,-0.119903564453125
1713449323283669200,8.462669189453125,-0.9933319091796875,-0.0293121337890625,-0.1219635009765625
1713449323293742000,8.4727421875,-0.989776611328125,-0.030242919921875,-0.11993408203125
1713449323303816200,8.482816162109375,-0.9898681640625,-0.0301513671875,-0.1192779541015625
1713449323313889000,8.492888916015625,-0.991790771484375,-0.0294952392578125,-0.118408203125
1713449323323963100,8.502963134765626,-0.99169921875,-0.0282440185546875,-0.11810302734375
1713449323334036200,8.5130361328125,-0.9913330078125,-0.02764892578125,-0.1209869384765625
1713449323344110300,8.5231103515625,-0.9903106689453125,-0.028228759765625,-0.1190948486328125
1713449323354183200,8.53318310546875,-0.9895782470703125,-0.029388427734375,-0.1205291748046875
1713449323364257000,8.543257080078124,-0.9927215576171875,-0.02728271484375,-0.1201171875
1713449323374330000,8.553330078125,-0.99395751953125,-0.0271453857421875,-0.12005615234375
1713449323384404200,8.563404296875,-0.9908905029296875,-0.0272216796875,-0.11907958984375
1713449323394478000,8.57347802734375,-0.989471435546875,-0.029205322265625,-0.11981201171875
1713449323404551000,8.583551025390625,-0.9885406494140625,-0.0294952392578125,-0.119964599609375
1713449323414625300,8.593625244140625,-0.9892578125,-0.027496337890625,-0.1202239990234375
1713449323424698000,8.603697998046876,-0.9927978515625,-0.02777099609375,-0.119598388671875
1713449323434772200,8.613772216796875,-0.991729736328125,-0.0294647216796875,-0.1198272705078125
1713449323444845300,8.62384521484375,-0.990325927734375,-0.0294189453125,-0.118804931640625
1713449323454919200,8.633919189453126,-0.9901123046875,-0.02789306640625,-0.1202850341796875
1713449323464993300,8.6439931640625,-0.988677978515625,-0.0294189453125,-0.120758056640625
1713449323475066000,8.654066162109375,-0.9908599853515625,-0.028656005859375,-0.118927001953125
1713449323485140000,8.664139892578126,-0.9932708740234375,-0.028076171875,-0.12109375
1713449323495213000,8.674213134765624,-0.992431640625,-0.0279388427734375,-0.1208648681640625
1713449323505287200,8.684287109375,-0.988311767578125,-0.0281982421875,-0.1214599609375
1713449323515360000,8.694360107421875,-0.98809814453125,-0.027252197265625,-0.1214141845703125
1713449323525434400,8.704434326171874,-0.9929656982421875,-0.02667236328125,-0.12225341796875
1713449323535507200,8.714507080078125,-0.995452880859375,-0.0280914306640625,-0.1224212646484375
1713449323545581000,8.7245810546875,-0.992340087890625,-0.0289459228515625,-0.12261962890625
1713449323555654100,8.734654052734374,-0.9899444580078125,-0.02862548828125,-0.1214447021484375
1713449323565728300,8.744728271484375,-0.988983154296875,-0.0291900634765625,-0.122589111328125
1713449323575802000,8.754802001953125,-0.9915618896484375,-0.0285186767578125,-0.1190643310546875
1713449323585875000,8.764875,-0.99420166015625,-0.0285186767578125,-0.1188201904296875
1713449323595949000,8.774948974609375,-0.99273681640625,-0.029266357421875,-0.116485595703125
1713449323606022100,8.785022216796875,-0.989288330078125,-0.02825927734375,-0.1173095703125
1713449323616096300,8.79509619140625,-0.98956298828125,-0.027496337890625,-0.1205902099609375
1713449323626169000,8.805169189453125,-0.9925689697265625,-0.02642822265625,-0.118011474609375
1713449323636243200,8.8152431640625,-0.9945068359375,-0.0285797119140625,-0.11968994140625
1713449323646316000,8.82531591796875,-0.9904937744140625,-0.0300140380859375,-0.1203460693359375
1713449323656390100,8.83539013671875,-0.98968505859375,-0.027801513671875,-0.1202545166015625
1713449323666464000,8.845464111328125,-0.9901275634765625,-0.02801513671875,-0.118896484375
1713449323676537000,8.855537109375,-0.9922332763671875,-0.0264739990234375,-0.1184234619140625
1713449323686611200,8.865611083984374,-0.9927520751953125,-0.0275421142578125,-0.1205596923828125
1713449323696684000,8.87568408203125,-0.9918975830078125,-0.027862548828125,-0.1195220947265625
1713449323706758100,8.885758056640626,-0.99169921875,-0.0277862548828125,-0.120208740234375
1713449323716831200,8.895831298828124,-0.99053955078125,-0.028076171875,-0.119537353515625
1713449323726905000,8.905905029296875,-0.993408203125,-0.0288238525390625,-0.1194610595703125
1713449323736978200,8.915978271484375,-0.991912841796875,-0.0289154052734375,-0.12005615234375
1713449323747052300,8.92605224609375,-0.99102783203125,-0.0287933349609375,-0.1196441650390625
1713449323757124000,8.9361240234375,-0.9910125732421875,-0.029296875,-0.120361328125
1713449323767198200,8.9461982421875,-0.99267578125,-0.0288238525390625,-0.1216583251953125
1713449323777272300,8.956272216796876,-0.991790771484375,-0.028900146484375,-0.12054443359375
1713449323787345200,8.96634521484375,-0.994232177734375,-0.0294952392578125,-0.1193695068359375
1713449323797419000,8.9764189453125,-0.9914703369140625,-0.029632568359375,-0.121124267578125
1713449323807492400,8.986492431640626,-0.990570068359375,-0.0289459228515625,-0.118865966796875
1713449323817566200,8.996566162109374,-0.989288330078125,-0.0277862548828125,-0.1199798583984375
1713449323827639000,9.00663916015625,-0.9893951416015625,-0.028411865234375,-0.1199951171875
1713449323837713200,9.016713134765626,-0.99127197265625,-0.0280609130859375,-0.12091064453125
1713449323847786200,9.0267861328125,-0.9929962158203125,-0.0271453857421875,-0.121246337890625
1713449323857860000,9.036860107421875,-0.9898681640625,-0.0273284912109375,-0.121002197265625
1713449323867934200,9.046934326171876,-0.99139404296875,-0.026092529296875,-0.123199462890625
1713449323878007300,9.05700732421875,-0.9931182861328125,-0.028839111328125,-0.12066650390625
1713449323888081200,9.0670810546875,-0.9947509765625,-0.02911376953125,-0.120086669921875
1713449323898154200,9.077154296875,-0.9934234619140625,-0.029510498046875,-0.1174774169921875
1713449323908228000,9.08722802734375,-0.989410400390625,-0.030975341796875,-0.120086669921875
1713449323918301200,9.09730126953125,-0.9885711669921875,-0.0295257568359375,-0.11822509765625
1713449323928375300,9.107375244140625,-0.989349365234375,-0.0300140380859375,-0.1180419921875
1713449323938448100,9.1174482421875,-0.99078369140625,-0.029083251953125,-0.118896484375
1713449323948522000,9.12752197265625,-0.991363525390625,-0.0271148681640625,-0.119598388671875
1713449323958596400,9.137596435546875,-0.9910888671875,-0.026611328125,-0.121734619140625
1713449323968669200,9.147669189453126,-0.990814208984375,-0.0259246826171875,-0.1197357177734375
1713449323978743000,9.157742919921875,-0.9920196533203125,-0.027313232421875,-0.11993408203125
1713449323988816100,9.167816162109375,-0.9942626953125,-0.0273895263671875,-0.1213226318359375
1713449323998890200,9.17789013671875,-0.99261474609375,-0.0269317626953125,-0.1199493408203125
1713449324008963000,9.187963134765624,-0.990631103515625,-0.029754638671875,-0.1206512451171875
1713449324019037200,9.198037109375,-0.9886474609375,-0.02874755859375,-0.1204833984375
1713449324029110300,9.2081103515625,-0.9897308349609375,-0.027740478515625,-0.1204986572265625
1713449324039184100,9.21818408203125,-0.99188232421875,-0.028167724609375,-0.1183624267578125
1713449324049258200,9.22825830078125,-0.99371337890625,-0.0272674560546875,-0.120452880859375
1713449324059331000,9.2383310546875,-0.99169921875,-0.0294342041015625,-0.1198272705078125
1713449324069405200,9.2484052734375,-0.990478515625,-0.02777099609375,-0.1191864013671875
1713449324079478000,9.25847802734375,-0.9909515380859375,-0.027984619140625,-0.1187744140625
1713449324089552100,9.26855224609375,-0.993865966796875,-0.0283203125,-0.1190338134765625
1713449324099625200,9.278625244140626,-0.99176025390625,-0.0283355712890625,-0.1186981201171875
1713449324109699300,9.28869921875,-0.9913482666015625,-0.0289764404296875,-0.118896484375
1713449324119772200,9.298772216796875,-0.9900970458984375,-0.0267333984375,-0.1192474365234375
1713449324129846000,9.308845947265626,-0.9911651611328125,-0.0277862548828125,-0.120361328125
1713449324139919000,9.318919189453124,-0.9921112060546875,-0.0286712646484375,-0.1181488037109375
1713449324149993200,9.3289931640625,-0.991729736328125,-0.0282135009765625,-0.1194000244140625
1713449324160067000,9.339067138671876,-0.9901275634765625,-0.026519775390625,-0.120849609375
1713449324170140000,9.349139892578124,-0.9884490966796875,-0.027618408203125,-0.1205902099609375
1713449324180214300,9.35921435546875,-0.9913482666015625,-0.0276031494140625,-0.1209564208984375
1713449324190287000,9.369287109375,-0.9926910400390625,-0.0286712646484375,-0.1203155517578125
1713449324200361200,9.379361328125,-0.995147705078125,-0.028350830078125,-0.1201019287109375
1713449324210434300,9.389434326171875,-0.992889404296875,-0.029327392578125,-0.12139892578125
1713449324220508200,9.399508056640625,-0.989959716796875,-0.0281829833984375,-0.1205596923828125
1713449324230581000,9.4095810546875,-0.9925079345703125,-0.0283660888671875,-0.120880126953125
1713449324240655000,9.419655029296875,-0.992767333984375,-0.02801513671875,-0.1195068359375
1713449324250729000,9.42972900390625,-0.99346923828125,-0.0275421142578125,-0.1186981201171875
1713449324260802000,9.439802001953124,-0.9896087646484375,-0.02783203125,-0.1200103759765625
1713449324270876200,9.449876220703125,-0.9892425537109375,-0.0285186767578125,-0.11865234375
1713449324280949000,9.459948974609375,-0.98980712890625,-0.028350830078125,-0.1201019287109375
1713449324291023400,9.4700234375,-0.990966796875,-0.0283660888671875,-0.1198883056640625
1713449324301096200,9.48009619140625,-0.9909210205078125,-0.0282135009765625,-0.1173858642578125
1713449324311170000,9.490170166015625,-0.991485595703125,-0.02777099609375,-0.119110107421875
1713449324321243100,9.5002431640625,-0.9900665283203125,-0.0267486572265625,-0.12066650390625
1713449324331317200,9.510317138671875,-0.9898681640625,-0.0270843505859375,-0.11968994140625
1713449324341391000,9.52039111328125,-0.99072265625,-0.02813720703125,-0.121124267578125
1713449324351464000,9.5304638671875,-0.9909820556640625,-0.028228759765625,-0.120758056640625
1713449324361538000,9.5405380859375,-0.99078369140625,-0.0296630859375,-0.11944580078125
1713449324371611100,9.550611083984375,-0.990447998046875,-0.028106689453125,-0.119659423828125
1713449324381685200,9.560685302734376,-0.98974609375,-0.0279693603515625,-0.1194305419921875
1713449324391758000,9.570758056640624,-0.993255615234375,-0.0274810791015625,-0.1188812255859375
1713449324401832200,9.580832275390625,-0.992767333984375,-0.02740478515625,-0.120025634765625
1713449324411905000,9.590905029296875,-0.9919891357421875,-0.0285797119140625,-0.1201019287109375
1713449324421979100,9.600979248046874,-0.99151611328125,-0.027984619140625,-0.1178436279296875
1713449324432053000,9.611052978515625,-0.9915924072265625,-0.0268707275390625,-0.1195220947265625
1713449324442126000,9.6211259765625,-0.9916229248046875,-0.0296478271484375,-0.1206207275390625
1713449324452200200,9.6312001953125,-0.9888458251953125,-0.0302581787109375,-0.119110107421875
1713449324462273000,9.64127294921875,-0.9910888671875,-0.0257110595703125,-0.120849609375
1713449324472347100,9.65134716796875,-0.992828369140625,-0.0280303955078125,-0.11981201171875
1713449324482420200,9.661420166015626,-0.9913482666015625,-0.02874755859375,-0.1221923828125
1713449324492494000,9.671494140625,-0.987518310546875,-0.0277252197265625,-0.1206207275390625
1713449324502567200,9.681567138671875,-0.9907989501953125,-0.028106689453125,-0.1205596923828125
1713449324512641300,9.691641357421876,-0.9944000244140625,-0.0283203125,-0.1191558837890625
1713449324522714000,9.701714111328124,-0.9933319091796875,-0.0278778076171875,-0.119903564453125
1713449324532788000,9.7117880859375,-0.990753173828125,-0.0290679931640625,-0.1195068359375
1713449324542862000,9.721862060546876,-0.98992919921875,-0.0286712646484375,-0.1202239990234375
1713449324552935200,9.73193505859375,-0.9916229248046875,-0.02880859375,-0.1204681396484375
1713449324563009000,9.742009033203125,-0.9932098388671875,-0.0281829833984375,-0.1207275390625
1713449324573082000,9.75208203125,-0.991729736328125,-0.029022216796875,-0.1214447021484375
1713449324583156200,9.76215625,-0.9883880615234375,-0.0273895263671875,-0.1199798583984375
1713449324593229000,9.77222900390625,-0.9903106689453125,-0.0276947021484375,-0.1202850341796875
1713449324603303200,9.78230322265625,-0.99395751953125,-0.0274658203125,-0.1207427978515625
1713449324613376300,9.792376220703124,-0.992462158203125,-0.0273284912109375,-0.1205596923828125
1713449324623450000,9.8024501953125,-0.99127197265625,-0.02679443359375,-0.1223602294921875
1713449324633524200,9.812524169921875,-0.9901275634765625,-0.027740478515625,-0.119140625
1713449324643597000,9.82259716796875,-0.992095947265625,-0.0267333984375,-0.11944580078125
1713449324653671000,9.8326708984375,-0.9930877685546875,-0.0284881591796875,-0.119232177734375
1713449324663744300,9.842744140625,-0.99224853515625,-0.0284423828125,-0.11846923828125
1713449324673818000,9.852818115234374,-0.9908905029296875,-0.028076171875,-0.1201019287109375
1713449324683891000,9.862890869140625,-0.9886322021484375,-0.0282135009765625,-0.118499755859375
1713449324693965300,9.87296533203125,-0.9903717041015625,-0.0289764404296875,-0.121429443359375
1713449324704038100,9.8830380859375,-0.991729736328125,-0.0285186767578125,-0.12176513671875
1713449324714112000,9.893112060546875,-0.9914398193359375,-0.0284576416015625,-0.12115478515625
1713449324724186000,9.90318603515625,-0.990081787109375,-0.0269927978515625,-0.1203765869140625
1713449324734259200,9.91325927734375,-0.9920501708984375,-0.0278778076171875,-0.12042236328125
1713449324744333000,9.9233330078125,-0.9923553466796875,-0.0293426513671875,-0.1197967529296875
1713449324754406100,9.93340625,-0.9921875,-0.0277557373046875,-0.1192626953125
1713449324764480000,9.94347998046875,-0.9911346435546875,-0.0272216796875,-0.1196136474609375
1713449324774553000,9.953552978515624,-0.98974609375,-0.0293426513671875,-0.12103271484375
1713449324784627000,9.963626953125,-0.989990234375,-0.02752685546875,-0.1207733154296875
1713449324794700000,9.973699951171875,-0.9923248291015625,-0.0269775390625,-0.12005615234375
1713449324804774100,9.983774169921874,-0.9919281005859375,-0.027191162109375,-0.121368408203125
1713449324814848000,9.993847900390625,-0.9907073974609375,-0.02862548828125,-0.120849609375
1713449324824920800,10.0039208984375,-0.99212646484375,-0.02862548828125,-0.120330810546875
1713449324834995000,10.013994873046874,-0.9896240234375,-0.030670166015625,-0.1183929443359375
1713449324845068000,10.024068115234375,-0.9891815185546875,-0.027984619140625,-0.1190032958984375
1713449324855142000,10.034141845703125,-0.9907379150390625,-0.02825927734375,-0.1176910400390625
1713449324865215000,10.044215087890626,-0.9924468994140625,-0.02825927734375,-0.1201324462890625
1713449324875289000,10.0542890625,-0.991180419921875,-0.0263214111328125,-0.1219482421875
1713449324885362000,10.06436181640625,-0.991241455078125,-0.027130126953125,-0.12139892578125
1713449324895436000,10.07443603515625,-0.9907989501953125,-0.027740478515625,-0.121124267578125
1713449324905510000,10.084510009765625,-0.9935302734375,-0.0281524658203125,-0.120361328125
1713449324915583000,10.0945830078125,-0.9940948486328125,-0.027984619140625,-0.1208953857421875
1713449324925657000,10.104656982421876,-0.992523193359375,-0.02777099609375,-0.1207427978515625
1713449324935730000,10.11472998046875,-0.9899749755859375,-0.027618408203125,-0.1181793212890625
1713449324945803800,10.1248037109375,-0.9891815185546875,-0.0265350341796875,-0.11993408203125
1713449324955877000,10.134877197265626,-0.990631103515625,-0.0280914306640625,-0.12060546875
1713449324965951000,10.144950927734374,-0.9924468994140625,-0.028411865234375,-0.120269775390625
1713449324976023800,10.15502392578125,-0.991424560546875,-0.0276641845703125,-0.1192626953125
1713449324986098200,10.16509814453125,-0.9891510009765625,-0.0271148681640625,-0.120513916015625
1713449324996171000,10.1751708984375,-0.9898529052734375,-0.0278472900390625,-0.1212158203125
1713449325006244900,10.185244873046875,-0.991943359375,-0.02764892578125,-0.1187744140625
1713449325016319000,10.195319091796875,-0.992645263671875,-0.0270843505859375,-0.1183624267578125
1713449325026392000,10.20539208984375,-0.9908599853515625,-0.029327392578125,-0.1210479736328125
1713449325036466000,10.2154658203125,-0.99151611328125,-0.029083251953125,-0.11932373046875
1713449325046539000,10.2255390625,-0.9917144775390625,-0.0283355712890625,-0.119781494140625
1713449325056612900,10.23561279296875,-0.9904632568359375,-0.028961181640625,-0.11895751953125
1713449325066686000,10.24568603515625,-0.9925384521484375,-0.0276641845703125,-0.120147705078125
1713449325076760000,10.255760009765625,-0.9924774169921875,-0.02716064453125,-0.1197509765625
1713449325086834000,10.265833984375,-0.990570068359375,-0.02716064453125,-0.1199493408203125
1713449325096907000,10.275906982421875,-0.9905242919921875,-0.027801513671875,-0.1199798583984375
1713449325106981000,10.285981201171875,-0.99102783203125,-0.0279693603515625,-0.119476318359375
1713449325117054000,10.296053955078126,-0.9912872314453125,-0.0280914306640625,-0.12005615234375
1713449325127127800,10.3061279296875,-0.991424560546875,-0.028106689453125,-0.119232177734375
1713449325137201200,10.316201171875,-0.9916534423828125,-0.0267791748046875,-0.117523193359375
1713449325147275000,10.32627490234375,-0.9910888671875,-0.026641845703125,-0.1204071044921875
1713449325157347800,10.336347900390624,-0.9903717041015625,-0.027191162109375,-0.120086669921875
1713449325167422000,10.346421875,-0.9907073974609375,-0.0267791748046875,-0.1196746826171875
1713449325177495000,10.3564951171875,-0.9918212890625,-0.0269927978515625,-0.1201019287109375
1713449325187569000,10.36656884765625,-0.991485595703125,-0.0285797119140625,-0.121063232421875
1713449325197643000,10.37664306640625,-0.98980712890625,-0.0275726318359375,-0.119873046875
1713449325207716000,10.386716064453125,-0.991912841796875,-0.028228759765625,-0.1184539794921875
1713449325217790000,10.3967900390625,-0.9915313720703125,-0.027099609375,-0.1187744140625
1713449325227863000,10.406863037109375,-0.99432373046875,-0.026824951171875,-0.1208343505859375
1713449325237937000,10.41693701171875,-0.9923553466796875,-0.027069091796875,-0.118988037109375
1713449325248010000,10.427010009765626,-0.9913787841796875,-0.0266876220703125,-0.1183929443359375
1713449325258084000,10.437083984375,-0.991180419921875,-0.027618408203125,-0.1180877685546875
1713449325268158000,10.447157958984375,-0.9908599853515625,-0.0260009765625,-0.1186676025390625
1713449325278230800,10.457230712890626,-0.9923553466796875,-0.0269927978515625,-0.121490478515625
1713449325288305200,10.46730517578125,-0.9924774169921875,-0.027313232421875,-0.120269775390625
1713449325298378000,10.4773779296875,-0.9913177490234375,-0.0269775390625,-0.118621826171875
1713449325308451800,10.487451904296876,-0.9918212890625,-0.028106689453125,-0.1200103759765625
1713449325318525200,10.497525146484374,-0.9913177490234375,-0.028228759765625,-0.1190185546875
1713449325328599000,10.50759912109375,-0.99114990234375,-0.0272064208984375,-0.1193389892578125
1713449325338671900,10.517671875,-0.99188232421875,-0.0277099609375,-0.119354248046875
1713449325348746000,10.52774609375,-0.99200439453125,-0.0265960693359375,-0.1187591552734375
1713449325358819000,10.537819091796875,-0.9926300048828125,-0.0292510986328125,-0.1191558837890625
1713449325368893000,10.547892822265625,-0.989959716796875,-0.0272674560546875,-0.11859130859375
1713449325378967000,10.557967041015624,-0.988311767578125,-0.027313232421875,-0.1198272705078125
1713449325389039900,10.568039794921875,-0.9898529052734375,-0.027130126953125,-0.1181488037109375
1713449325399114000,10.578114013671875,-0.9921875,-0.0270233154296875,-0.1194000244140625
1713449325409187000,10.58818701171875,-0.9935302734375,-0.0267333984375,-0.1202392578125
1713449325419261000,10.598260986328125,-0.9898529052734375,-0.0295562744140625,-0.118560791015625
1713449325429334000,10.608333984375,-0.9865875244140625,-0.02642822265625,-0.1179962158203125
1713449325439408000,10.618408203125,-0.9928131103515625,-0.0259857177734375,-0.117706298828125
1713449325449481000,10.62848095703125,-0.9932403564453125,-0.0270538330078125,-0.1171875
1713449325459554800,10.638554931640625,-0.989013671875,-0.028533935546875,-0.1209716796875
1713449325469629000,10.64862890625,-0.988739013671875,-0.027496337890625,-0.1179046630859375
1713449325479702000,10.658701904296874,-0.9919281005859375,-0.0272674560546875,-0.11676025390625
1713449325489775900,10.66877587890625,-0.993133544921875,-0.0280303955078125,-0.11773681640625
1713449325499849000,10.678848876953126,-0.9933319091796875,-0.0278472900390625,-0.1193389892578125
1713449325509923000,10.688923095703124,-0.9922637939453125,-0.0291290283203125,-0.118988037109375
1713449325519996000,10.698995849609375,-0.99029541015625,-0.027099609375,-0.11944580078125
1713449325530070000,10.709070068359376,-0.99346923828125,-0.0269622802734375,-0.1213836669921875
1713449325540143000,10.71914306640625,-0.9966583251953125,-0.026824951171875,-0.1196136474609375
1713449325550217000,10.729217041015625,-0.9903564453125,-0.0267486572265625,-0.1195831298828125
1713449325560291000,10.739291015625,-0.987579345703125,-0.0261993408203125,-0.1195068359375
1713449325570364000,10.749364013671874,-0.99212646484375,-0.0269775390625,-0.1201019287109375
1713449325580438000,10.75943798828125,-0.9926300048828125,-0.024932861328125,-0.1192474365234375
1713449325590511000,10.769510986328125,-0.990997314453125,-0.0260009765625,-0.1185150146484375
1713449325600585000,10.7795849609375,-0.9895172119140625,-0.028167724609375,-0.1175079345703125
1713449325610658000,10.789657958984375,-0.989959716796875,-0.0282440185546875,-0.1182403564453125
1713449325620732200,10.799732177734375,-0.9896240234375,-0.027374267578125,-0.119384765625
1713449325630805000,10.809804931640626,-0.99200439453125,-0.0282135009765625,-0.119476318359375
1713449325640878800,10.81987890625,-0.99346923828125,-0.0276641845703125,-0.118194580078125
1713449325650953000,10.829952880859375,-0.991485595703125,-0.027679443359375,-0.1196136474609375
1713449325661026000,10.840026123046876,-0.9918212890625,-0.0271759033203125,-0.1211090087890625
1713449325671100000,10.850099853515625,-0.991241455078125,-0.028076171875,-0.1176300048828125
1713449325681173000,10.860173095703125,-0.9925689697265625,-0.027557373046875,-0.119110107421875
1713449325691247000,10.8702470703125,-0.992523193359375,-0.028045654296875,-0.1178741455078125
1713449325701320000,10.88031982421875,-0.9930572509765625,-0.0281524658203125,-0.11907958984375
1713449325711394000,10.89039404296875,-0.9926910400390625,-0.0262908935546875,-0.1184234619140625
1713449325721467100,10.900467041015625,-0.9911041259765625,-0.0262603759765625,-0.1178436279296875
1713449325731541000,10.910541015625,-0.991485595703125,-0.0273284912109375,-0.119171142578125
1713449325741615000,10.920614990234375,-0.992156982421875,-0.0272979736328125,-0.11993408203125
1713449325751688000,10.93068798828125,-0.9922332763671875,-0.0276641845703125,-0.119598388671875
1713449325761761800,10.94076171875,-0.989532470703125,-0.0287322998046875,-0.118927001953125
1713449325771835000,10.9508349609375,-0.9879302978515625,-0.027496337890625,-0.1195831298828125
1713449325781909000,10.960908935546875,-0.9905548095703125,-0.0274658203125,-0.118743896484375
1713449325791981800,10.97098193359375,-0.9925994873046875,-0.028717041015625,-0.117462158203125
1713449325802056000,10.981055908203125,-0.9930267333984375,-0.0279388427734375,-0.117279052734375
1713449325812128800,10.991128662109375,-0.9898223876953125,-0.0277252197265625,-0.117767333984375
1713449325822203000,11.001202880859376,-0.9887542724609375,-0.02679443359375,-0.1201629638671875
1713449325832276700,11.01127685546875,-0.992523193359375,-0.0274200439453125,-0.1193695068359375
1713449325842350000,11.02135009765625,-0.9933929443359375,-0.0267181396484375,-0.12005615234375
1713449325852424000,11.031423828125,-0.9935302734375,-0.0274810791015625,-0.1195831298828125
1713449325862496800,11.041496826171874,-0.9923553466796875,-0.027008056640625,-0.1186370849609375
1713449325872571000,11.05157080078125,-0.99041748046875,-0.027130126953125,-0.117919921875
1713449325882644000,11.06164404296875,-0.9928436279296875,-0.0279693603515625,-0.117401123046875
1713449325892717800,11.0717177734375,-0.9905548095703125,-0.0280914306640625,-0.117279052734375
1713449325902791000,11.081791015625,-0.9924163818359375,-0.0276031494140625,-0.1182098388671875
1713449325912865000,11.091864990234376,-0.9901123046875,-0.027099609375,-0.118927001953125
1713449325922939000,11.10193896484375,-0.9895477294921875,-0.0271759033203125,-0.1192474365234375
1713449325933012000,11.112011962890625,-0.990570068359375,-0.0286712646484375,-0.117034912109375
1713449325943085800,11.1220859375,-0.9927215576171875,-0.028289794921875,-0.117279052734375
1713449325953159000,11.132158935546874,-0.9917755126953125,-0.0276336669921875,-0.1182708740234375
1713449325963233000,11.14223291015625,-0.9918365478515625,-0.026275634765625,-0.1179962158203125
1713449325973305900,11.152305908203125,-0.990478515625,-0.0277252197265625,-0.1203460693359375
1713449325983380000,11.1623798828125,-0.99224853515625,-0.0265350341796875,-0.1188201904296875
1713449325993452800,11.172452880859375,-0.99346923828125,-0.0267333984375,-0.118072509765625
1713449326003527000,11.18252685546875,-0.993072509765625,-0.0275421142578125,-0.1194000244140625
1713449326013600800,11.192600830078124,-0.99127197265625,-0.0276031494140625,-0.1192779541015625
1713449326023673900,11.202673828125,-0.9908294677734375,-0.0265045166015625,-0.1185150146484375
1713449326033748000,11.212748046875,-0.990753173828125,-0.02783203125,-0.119873046875
1713449326043820800,11.22282080078125,-0.9932861328125,-0.0270233154296875,-0.118896484375
1713449326053895000,11.23289501953125,-0.9917449951171875,-0.02679443359375,-0.1179046630859375
1713449326063968000,11.242968017578125,-0.9892120361328125,-0.0278472900390625,-0.119781494140625
1713449326074041900,11.253041748046876,-0.989990234375,-0.0262298583984375,-0.1199493408203125
1713449326084114700,11.26311474609375,-0.9926300048828125,-0.027923583984375,-0.11920166015625
1713449326094189000,11.27318896484375,-0.9930572509765625,-0.0300140380859375,-0.1188507080078125
1713449326104263000,11.283262939453126,-0.9922637939453125,-0.02801513671875,-0.119293212890625
1713449326114335700,11.293335693359374,-0.99114990234375,-0.0273895263671875,-0.1214752197265625
1713449326124409900,11.303409912109375,-0.989715576171875,-0.0274658203125,-0.1197052001953125
1713449326134483000,11.31348291015625,-0.9901580810546875,-0.0294189453125,-0.11895751953125
1713449326144557000,11.32355712890625,-0.9933013916015625,-0.0289459228515625,-0.11944580078125
1713449326154630000,11.3336298828125,-0.993682861328125,-0.0256805419921875,-0.11883544921875
1713449326164703700,11.343703857421875,-0.9921875,-0.0265045166015625,-0.11865234375
1713449326174776800,11.35377685546875,-0.9890594482421875,-0.0279693603515625,-0.11883544921875
1713449326184851000,11.363850830078125,-0.9897613525390625,-0.0273895263671875,-0.1195220947265625
1713449326194924800,11.3739248046875,-0.991729736328125,-0.0266571044921875,-0.119598388671875
1713449326204998000,11.383997802734376,-0.99365234375,-0.0279388427734375,-0.11822509765625
1713449326215072000,11.394072021484375,-0.9911956787109375,-0.0284423828125,-0.1196136474609375
1713449326225144800,11.404144775390625,-0.989654541015625,-0.0277252197265625,-0.1183929443359375
1713449326235219000,11.414218994140626,-0.9898529052734375,-0.027069091796875,-0.1156463623046875
1713449326245292000,11.4242919921875,-0.9946441650390625,-0.026824951171875,-0.118896484375
1713449326255366000,11.434365966796875,-0.9967803955078125,-0.027130126953125,-0.1182861328125
1713449326265438700,11.444438720703126,-0.9902191162109375,-0.029327392578125,-0.11773681640625
1713449326275512800,11.454512939453124,-0.9852142333984375,-0.0264129638671875,-0.1201019287109375
1713449326285587000,11.4645869140625,-0.9892578125,-0.0269012451171875,-0.1195068359375
1713449326295659800,11.47465966796875,-0.996185302734375,-0.027252197265625,-0.1188812255859375
1713449326305734000,11.48473388671875,-0.9918060302734375,-0.0290069580078125,-0.1206512451171875
1713449326315807000,11.494806884765625,-0.9893798828125,-0.0276336669921875,-0.120880126953125
1713449326325881000,11.504881103515626,-0.988250732421875,-0.027252197265625,-0.1207122802734375
1713449326335954000,11.514953857421874,-0.9928436279296875,-0.0289306640625,-0.11956787109375
1713449326346027800,11.52502783203125,-0.995697021484375,-0.027679443359375,-0.1195220947265625
1713449326356100900,11.535100830078125,-0.992706298828125,-0.027587890625,-0.1202239990234375
1713449326366175000,11.545175048828124,-0.988128662109375,-0.0284881591796875,-0.11907958984375
1713449326376248800,11.555248779296875,-0.9914093017578125,-0.02728271484375,-0.1206207275390625
1713449326386321700,11.56532177734375,-0.9922943115234375,-0.0278778076171875,-0.120086669921875
1713449326396396000,11.57539599609375,-0.991851806640625,-0.02850341796875,-0.1201324462890625
1713449326406468900,11.58546875,-0.99029541015625,-0.0277099609375,-0.1197662353515625
1713449326416543000,11.59554296875,-0.9921722412109375,-0.0274505615234375,-0.120452880859375
1713449326426616000,11.605615966796876,-0.9897308349609375,-0.026885986328125,-0.1207122802734375
1713449326436690000,11.61568994140625,-0.98919677734375,-0.0285491943359375,-0.119720458984375
1713449326446762800,11.6257626953125,-0.991607666015625,-0.0269012451171875,-0.1188201904296875
1713449326456836900,11.6358369140625,-0.991180419921875,-0.0273895263671875,-0.118377685546875
1713449326466910700,11.64591064453125,-0.9919586181640625,-0.028717041015625,-0.1195831298828125
1713449326476983800,11.65598388671875,-0.9922332763671875,-0.0280303955078125,-0.1181182861328125
1713449326487058000,11.666057861328126,-0.991943359375,-0.02825927734375,-0.1194305419921875
1713449326497130800,11.676130859375,-0.9920196533203125,-0.0282745361328125,-0.120269775390625
1713449326507205000,11.686205078125,-0.992279052734375,-0.028778076171875,-0.118927001953125
1713449326517278000,11.69627783203125,-0.9927520751953125,-0.0272064208984375,-0.120208740234375
1713449326527351800,11.706351806640624,-0.990814208984375,-0.0282440185546875,-0.12078857421875
1713449326537425000,11.7164248046875,-0.9902801513671875,-0.02862548828125,-0.1188201904296875
1713449326547499000,11.7264990234375,-0.990814208984375,-0.0274658203125,-0.11865234375
1713449326557572900,11.73657275390625,-0.9928436279296875,-0.0278167724609375,-0.1188201904296875
1713449326567645700,11.746645751953125,-0.993072509765625,-0.0283660888671875,-0.119720458984375
1713449326577719800,11.7567197265625,-0.9903717041015625,-0.0277557373046875,-0.1188812255859375
1713449326587793000,11.76679296875,-0.9876861572265625,-0.0275726318359375,-0.1208953857421875
1713449326597866800,11.77686669921875,-0.990692138671875,-0.028594970703125,-0.1211090087890625
1713449326607939800,11.78693994140625,-0.9949493408203125,-0.0267486572265625,-0.1204986572265625
1713449326618014000,11.797013916015626,-0.9927978515625,-0.02716064453125,-0.1195068359375
1713449326628086800,11.807086669921874,-0.9904937744140625,-0.028900146484375,-0.120574951171875
1713449326638161000,11.817160888671875,-0.989837646484375,-0.0277862548828125,-0.1194305419921875
1713449326648234800,11.82723486328125,-0.9893646240234375,-0.0280914306640625,-0.1174468994140625
1713449326658307800,11.837307861328124,-0.9929046630859375,-0.0284423828125,-0.1189727783203125
1713449326668382000,11.8473818359375,-0.99151611328125,-0.0286102294921875,-0.1201629638671875
1713449326678454800,11.857454833984375,-0.9918670654296875,-0.0278167724609375,-0.120697021484375
1713449326688529000,11.86752880859375,-0.990020751953125,-0.02777099609375,-0.1197967529296875
1713449326698602000,11.87760205078125,-0.991668701171875,-0.0272369384765625,-0.122528076171875
1713449326708675800,11.88767578125,-0.9931640625,-0.027374267578125,-0.121337890625
1713449326718749000,11.8977490234375,-0.9927520751953125,-0.02789306640625,-0.119873046875
1713449326728823000,11.907822998046875,-0.99200439453125,-0.0275726318359375,-0.1198883056640625
1713449326738897000,11.91789697265625,-0.99078369140625,-0.028656005859375,-0.12042236328125
1713449326748969700,11.9279697265625,-0.9904022216796875,-0.0283355712890625,-0.120330810546875
1713449326759043800,11.9380439453125,-0.9925079345703125,-0.0291290283203125,-0.1172637939453125
1713449326769118000,11.948117919921875,-0.9935302734375,-0.0281829833984375,-0.118438720703125
1713449326779191800,11.95819189453125,-0.9915618896484375,-0.027496337890625,-0.1197357177734375
1713449326789264600,11.9682646484375,-0.989410400390625,-0.027313232421875,-0.12066650390625
1713449326799338800,11.9783388671875,-0.990447998046875,-0.0287322998046875,-0.11846923828125
1713449326809412600,11.98841259765625,-0.990509033203125,-0.0285186767578125,-0.119659423828125
1713449326819485700,11.998485595703125,-0.9947967529296875,-0.0284576416015625,-0.1188812255859375
1713449326829559800,12.008559814453125,-0.9924468994140625,-0.028167724609375,-0.1199493408203125
1713449326839632600,12.018632568359376,-0.99176025390625,-0.029052734375,-0.120391845703125
1713449326849706800,12.028706787109375,-0.9897918701171875,-0.0279541015625,-0.1196441650390625
1713449326859779800,12.03877978515625,-0.9909210205078125,-0.0287933349609375,-0.119964599609375
1713449326869853700,12.048853759765626,-0.9908599853515625,-0.0277862548828125,-0.12017822265625
1713449326879926800,12.0589267578125,-0.9924774169921875,-0.0291595458984375,-0.119598388671875
1713449326890001000,12.0690009765625,-0.9913482666015625,-0.0286865234375,-0.1197509765625
1713449326900073700,12.07907373046875,-0.988800048828125,-0.0278778076171875,-0.12017822265625
1713449326910147600,12.089147705078124,-0.9900665283203125,-0.0276641845703125,-0.1204833984375
1713449326920221700,12.0992216796875,-0.9922637939453125,-0.02752685546875,-0.1194610595703125
1713449326930294800,12.109294677734376,-0.9917755126953125,-0.02850341796875,-0.11871337890625
1713449326940368600,12.11936865234375,-0.990081787109375,-0.0301361083984375,-0.1182098388671875
1713449326950441700,12.129441650390625,-0.99114990234375,-0.0288238525390625,-0.11956787109375
1713449326960515800,12.139515869140626,-0.9906768798828125,-0.029266357421875,-0.1189422607421875
1713449326970588700,12.149588623046874,-0.991455078125,-0.029388427734375,-0.1183624267578125
1713449326980662800,12.159662841796875,-0.9924468994140625,-0.028106689453125,-0.120330810546875
1713449326990736000,12.16973583984375,-0.9899749755859375,-0.027862548828125,-0.1196746826171875
1713449327000809700,12.179809814453124,-0.9891357421875,-0.026885986328125,-0.11932373046875
1713449327010883800,12.1898837890625,-0.9894256591796875,-0.0263671875,-0.118621826171875
1713449327020956700,12.199956787109375,-0.99249267578125,-0.0283050537109375,-0.1194915771484375
1713449327031030500,12.210030517578126,-0.993255615234375,-0.0284271240234375,-0.1201324462890625
1713449327041104000,12.220103759765625,-0.9907989501953125,-0.027099609375,-0.119415283203125
1713449327051177700,12.230177734375,-0.9911956787109375,-0.0265350341796875,-0.1193695068359375
1713449327061250600,12.24025048828125,-0.9898834228515625,-0.027008056640625,-0.1202850341796875
1713449327071325000,12.250324951171875,-0.990386962890625,-0.0292816162109375,-0.1208953857421875
1713449327081398800,12.260398681640625,-0.9924774169921875,-0.02886962890625,-0.120391845703125
1713449327091471600,12.2704716796875,-0.9917755126953125,-0.028472900390625,-0.12176513671875
1713449327101545700,12.280545654296875,-0.991424560546875,-0.0283660888671875,-0.11920166015625
1713449327111618800,12.290618896484375,-0.9906463623046875,-0.0290679931640625,-0.1169281005859375
1713449327121692700,12.300692626953126,-0.9926300048828125,-0.028717041015625,-0.1190643310546875
1713449327131765800,12.310765869140624,-0.9938812255859375,-0.0272979736328125,-0.1189727783203125
1713449327141839600,12.320839599609375,-0.9907073974609375,-0.0281982421875,-0.1212158203125
1713449327151912700,12.33091259765625,-0.98907470703125,-0.02752685546875,-0.1202850341796875
1713449327161986800,12.34098681640625,-0.990325927734375,-0.028472900390625,-0.1192474365234375
1713449327172060700,12.351060791015625,-0.9922943115234375,-0.0279388427734375,-0.1197052001953125
1713449327182133800,12.3611337890625,-0.9930419921875,-0.0276031494140625,-0.120697021484375
1713449327192208000,12.371207763671874,-0.9915618896484375,-0.028289794921875,-0.11956787109375
1713449327202280700,12.38128076171875,-0.989349365234375,-0.0288543701171875,-0.1190338134765625
1713449327212354600,12.3913544921875,-0.991729736328125,-0.02630615234375,-0.11871337890625
1713449327222427600,12.401427734375,-0.992584228515625,-0.0259857177734375,-0.11956787109375
1713449327232501800,12.411501708984375,-0.9925537109375,-0.029449462890625,-0.1202239990234375
1713449327242574600,12.42157470703125,-0.9887237548828125,-0.028167724609375,-0.120758056640625
1713449327252648700,12.431648681640626,-0.9886474609375,-0.0268707275390625,-0.1201171875
1713449327262722800,12.441722900390625,-0.99334716796875,-0.0285186767578125,-0.1183013916015625
1713449327272795600,12.451795654296875,-0.9925994873046875,-0.02789306640625,-0.118927001953125
1713449327282869800,12.461869873046876,-0.989044189453125,-0.0276336669921875,-0.121124267578125
1713449327292942800,12.47194287109375,-0.988128662109375,-0.0299072265625,-0.119415283203125
1713449327303016700,12.4820166015625,-0.9917755126953125,-0.0283355712890625,-0.120208740234375
1713449327313089500,12.492089599609375,-0.9952239990234375,-0.0285491943359375,-0.120697021484375
1713449327323163600,12.50216357421875,-0.99188232421875,-0.0287322998046875,-0.1182098388671875
1713449327333236700,12.51223681640625,-0.98919677734375,-0.0289154052734375,-0.1193084716796875
1713449327343310800,12.522310791015625,-0.9915771484375,-0.028564453125,-0.1203460693359375
1713449327353384700,12.532384765625,-0.991485595703125,-0.0278167724609375,-0.120391845703125
1713449327363457800,12.542457763671875,-0.9903411865234375,-0.0284271240234375,-0.120819091796875
1713449327373532000,12.552531982421876,-0.9898834228515625,-0.0286865234375,-0.12078857421875
1713449327383604700,12.562604736328124,-0.992889404296875,-0.0260009765625,-0.1208648681640625
1713449327393678600,12.5726787109375,-0.99285888671875,-0.02691650390625,-0.1202850341796875
1713449327403751700,12.582751708984375,-0.9911346435546875,-0.027008056640625,-0.12005615234375
1713449327413825800,12.59282568359375,-0.988861083984375,-0.026275634765625,-0.1201171875
1713449327423898600,12.602898681640625,-0.9905853271484375,-0.0272979736328125,-0.11981201171875
1713449327433972700,12.61297265625,-0.992706298828125,-0.0273284912109375,-0.1186981201171875
1713449327444046800,12.623046875,-0.994384765625,-0.02978515625,-0.1194610595703125
1713449327454119700,12.63311962890625,-0.9916229248046875,-0.0288543701171875,-0.1200714111328125
1713449327464193800,12.64319384765625,-0.9892730712890625,-0.0271759033203125,-0.12115478515625
1713449327474267000,12.653266845703126,-0.9898681640625,-0.02862548828125,-0.1192169189453125
1713449327484340700,12.6633408203125,-0.9927520751953125,-0.0279693603515625,-0.1190643310546875
1713449327494413600,12.67341357421875,-0.992645263671875,-0.0282745361328125,-0.1202850341796875
1713449327504487700,12.68348779296875,-0.9923248291015625,-0.0281829833984375,-0.1200103759765625
1713449327514561500,12.6935615234375,-0.990447998046875,-0.02880859375,-0.119354248046875
1713449327524635000,12.703634765625,-0.9912872314453125,-0.0265655517578125,-0.122039794921875
1713449327534708700,12.713708740234376,-0.9941864013671875,-0.028106689453125,-0.119476318359375
1713449327544781600,12.723781494140624,-0.9938812255859375,-0.0278167724609375,-0.1176605224609375
1713449327554856000,12.73385595703125,-0.9915008544921875,-0.0273895263671875,-0.1192474365234375
1713449327564928800,12.7439287109375,-0.9902496337890625,-0.029327392578125,-0.120391845703125
1713449327575002600,12.754002685546874,-0.989776611328125,-0.0270233154296875,-0.1209259033203125
1713449327585075700,12.76407568359375,-0.991851806640625,-0.026763916015625,-0.1174468994140625
1713449327595149800,12.77414990234375,-0.9938201904296875,-0.028472900390625,-0.1202545166015625
1713449327605222700,12.78422265625,-0.991485595703125,-0.02801513671875,-0.1201324462890625
1713449327615296800,12.794296875,-0.9891510009765625,-0.0290374755859375,-0.120849609375
1713449327625370600,12.80437060546875,-0.9890899658203125,-0.030914306640625,-0.1200714111328125
1713449327635443700,12.814443603515626,-0.99176025390625,-0.0291595458984375,-0.119476318359375
1713449327645517800,12.824517822265625,-0.9949188232421875,-0.02777099609375,-0.1192779541015625
1713449327655590700,12.834590576171875,-0.9903564453125,-0.0289764404296875,-0.1191864013671875
