time,seconds_elapsed,z,y,x
1713449314842045700,0.021045654296875,0.01603869613111019,-0.07135795736890285,0.02499861298240721
1713449314852118800,0.031118896484375,0.03102525286078453,-0.0863378286294639,0.03458250695094466
1713449314862193000,0.04119287109375,0.012606383594870567,-0.07168704319279641,0.04111073967590928
1713449314872265700,0.051265625,-0.03199146754443645,-0.04910128177208826,0.028692937455698845
1713449314882339800,0.06133984375,-0.020109306570887563,-0.04461940538398921,0.025299130298942325
1713449314892412700,0.07141259765625,-0.019715923339128492,-0.036107414963282645,0.04323898387625813
1713449314902486800,0.08148681640625,-0.030671617117524145,-0.02288227841556072,0.03250760037302971
1713449314912560600,0.091560546875,-0.016836568510532376,-0.06338062181416898,0.014354542436450719
1713449314922633700,0.1016337890625,0.012031798577308654,-0.06900058058779686,0.009017857583612203
1713449314932707800,0.111707763671875,-0.050824178308248515,-0.04386606626603752,0.008062018163502216
1713449314942780700,0.12178076171875,-0.09147299956083298,-0.047049281145725395,0.012700418553873896
1713449314952854800,0.131854736328125,-0.07587912458777427,0.0028022710043936966,-0.011817205978557467
1713449314962927900,0.141927978515625,-0.11078209566473961,0.050550092340912664,-0.00983523838110268
1713449314973001700,0.152001708984375,-0.06208031633794307,0.02274772878307849,0.0028987901814281937
1713449314983074600,0.162074462890625,-0.014465163204073905,-0.06823304854771121,0.0406430490989238
1713449314993149000,0.17214892578125,-0.029959669455885886,-0.10661087439469992,0.0492591940138489
1713449315003221800,0.1822216796875,-0.019566870257258413,-0.10559592519849538,0.05666852042227983
1713449315013295600,0.192295654296875,-0.018259879311919212,-0.1937346109711565,0.05076404561884701
1713449315023369000,0.202368896484375,0.10917115333676337,-0.21940235538678243,0.03770684951655567
1713449315033442800,0.21244287109375,0.16501695919930934,-0.018226415433734655,-0.02222103802785277
1713449315043515600,0.222515625,0.0061550154983997345,0.1365015702676028,-0.05928915124945342
1713449315053589800,0.23258984375,-0.08111118002235888,-0.10310403531752527,-0.05809080831035971
1713449315063662800,0.242662841796875,-0.10800561668872832,-0.2402239749454893,-0.06019983635358512
1713449315073736700,0.25273681640625,-0.08951894288361072,-0.11228287388281896,0.05574987120740115
1713449315083809800,0.262809814453125,0.006653612670302391,-0.0027175335966981946,0.10665675936304032
1713449315093883600,0.272883544921875,0.14057342281639576,-0.08283259698748588,0.06631780777722597
1713449315103956700,0.282956787109375,0.23671967488527296,-0.1336325176373124,0.05911401387825608
1713449315114030800,0.29303076171875,0.1503308467209339,-0.16204499418381602,0.0403925814691931
1713449315124103700,0.303103759765625,-0.08290507770180702,-0.08031685130689292,-0.0016601152319461105
1713449315134177800,0.313177734375,-0.07775836246311664,-0.053872204234637316,0.07684387796670197
1713449315144251000,0.3232509765625,0.03880582373440265,-0.07240110974628478,0.09029628393165767
1713449315154324700,0.33332470703125,0.045693829682469364,-0.09594415362551807,0.0738769909851253
1713449315164397800,0.343397705078125,0.0030541268736124037,-0.12310739729590714,0.06573781593218446
1713449315174472000,0.353471923828125,0.016749474748969078,-0.06535260687372647,0.04737191896252334
1713449315184545800,0.3635458984375,0.10408464385271071,-0.08783358361255376,0.07117591533288359
1713449315194618600,0.37361865234375,0.1665747100353241,-0.09275759601127356,0.056245180443674325
1713449315204692700,0.383692626953125,0.1590285324394703,-0.09474613947998732,0.013170301087945698
1713449315214765800,0.393765869140625,0.12154781982898712,-0.12797029062453658,0.007755144171416759
1713449315224839700,0.403839599609375,0.15218553467690943,-0.2487341022026725,-0.003172127230092883
1713449315234912800,0.413912841796875,0.1605833606660366,-0.36650728059746324,0.06420074255801737
1713449315244987000,0.42398681640625,0.07680442273914813,-0.23518002596152945,0.06303783625848591
1713449315255059700,0.434059814453125,-0.006546645164489746,-0.07116254439465701,0.03769793555773794
1713449315265133800,0.4441337890625,0.0150187054336071,-0.09788714091945439,0.04318528092764318
1713449315275207000,0.45420703125,0.16666063475310802,-0.09408263406995683,0.0038148821130394935
1713449315285280800,0.46428076171875,0.1409013395965099,-0.06736633044946938,-0.017816592523828147
1713449315295353600,0.474353515625,0.005464695146679878,-0.03579180967546999,-0.0200913325227797
1713449315305427700,0.484427734375,-0.07424889303743838,-0.0699479079078883,0.017131752064824105
1713449315315500800,0.494500732421875,-0.02834872712790966,-0.12042422262653708,0.022450316739082335
1713449315325575000,0.504574951171875,0.01282324121594429,-0.12078331999620422,0.006574775280430913
1713449315335647700,0.514647705078125,0.019951485660672185,-0.09982453872282057,0.030447160711884497
1713449315345721600,0.5247216796875,-0.044294484278559684,-0.08135872504264116,0.03550912027657032
1713449315355794700,0.534794677734375,-0.08063245659470558,-0.062451706933602684,0.04637698964104056
1713449315365868800,0.544868896484375,-0.05647884306907654,-0.08473232966158538,0.03927577933371067
1713449315375941600,0.554941650390625,0.010136194089055061,-0.10189118892904371,0.06830620511546731
1713449315386015700,0.565015625,0.07023264313340187,-0.08855636319546029,0.06807685333900153
1713449315396088800,0.5750888671875,0.05467442399561405,-0.075774020245485,0.06923362215869128
1713449315406162700,0.58516259765625,0.05531798259615898,-0.08954590395577251,0.025823081107810137
1713449315416236800,0.59523681640625,0.048017304193973535,-0.08504519500304013,-0.0014161504082381724
1713449315426310000,0.605309814453125,0.051986207824945445,-0.06550853722095488,-0.02260528810508549
1713449315436383700,0.6153837890625,0.004765022444725036,-0.041495117617305365,-0.012417144633084534
1713449315446456600,0.62545654296875,-0.023950784429907796,-0.05726434915727004,0.03329093277044594
1713449315456530700,0.63553076171875,-0.028301380854845046,-0.04720876429006457,0.06338979150131345
1713449315466603800,0.645603759765625,-0.001367196699976921,-0.027746998375095425,0.08454539225473999
1713449315476677600,0.655677734375,0.03882394391298294,-0.05431947307810187,0.12586670594140886
1713449315486750700,0.665750732421875,0.0798731626600027,-0.07402542301248759,0.1617290235698223
1713449315496824800,0.675824951171875,0.10629647468328475,-0.11850050628865137,0.07697897558845579
1713449315506897700,0.685897705078125,0.11991583471298217,-0.1283589794148691,0.033902342667058105
1713449315516971800,0.6959716796875,0.07534487158060073,-0.07555065981838852,0.019643223429098723
1713449315527044900,0.706044921875,-0.0557353312253952,-0.05807199401203542,0.028231968880444762
1713449315537118700,0.71611865234375,-0.11765548856556415,-0.038495296480506654,0.03781907771937549
1713449315547191800,0.72619189453125,-0.041975101420283316,-0.09016838323567063,0.11422807140015065
1713449315557265700,0.736265625,0.10644143611192702,-0.15956338823484256,0.14306867369823156
1713449315567338800,0.7463388671875,0.209604288944602,-0.1483987096145749,0.09301438378393649
1713449315577412900,0.756412841796875,0.16815175009369848,-0.12921249097166582,0.06442629494220017
1713449315587485700,0.766485595703125,0.04579202935993671,-0.07782043138127774,0.03143529496639967
1713449315597559800,0.776559814453125,-0.08703121772110461,-0.03880450856015086,0.06005319442451
1713449315607633000,0.7866328125,-0.10259177494645118,-0.040040845422074194,0.07268295889496802
1713449315617706800,0.796706787109375,0.022146949878334998,-0.06914893954992293,0.059793374444544314
1713449315627779800,0.80677978515625,0.12920271849632262,-0.056661871485784644,0.10035773228406905
1713449315637854000,0.81685400390625,0.09472469483315944,0.03190735119124874,0.06439955306574702
1713449315647926800,0.8269267578125,-0.032635026144981386,0.13035722229368985,0.03266659032702446
1713449315658000600,0.837000732421875,-0.1592278544038534,0.15995397672131656,0.10559373324140905
1713449315668074800,0.84707470703125,-0.15582827509343622,0.03902187763787806,0.17988924189954994
1713449315678147800,0.85714794921875,-0.05732230815589428,-0.126311052175425,0.2675885681405663
1713449315688221700,0.8672216796875,0.07354746676981448,-0.1931746207345277,0.22439868410304187
1713449315698294800,0.877294677734375,0.10361235016584396,-0.1730378233685158,0.028487989468127486
1713449315708369000,0.887368896484375,-0.032384850776195524,-0.12449088754355907,-0.1394334590010345
1713449315718441700,0.897441650390625,-0.047204818767309184,-0.004111380841583013,-0.1559469330370426
1713449315728515800,0.907515869140625,0.061522097933292386,0.12882294366480782,-0.10464183934405445
1713449315738589000,0.9175888671875,0.12092179688513278,0.1653576623957604,-0.018804507582634685
1713449315748662800,0.927662841796875,0.20415069971382616,0.04753779531503096,0.054603112325072284
1713449315758735600,0.937735595703125,0.18879297158420086,-0.15040425901701673,0.08976137333735823
1713449315768809700,0.947809814453125,0.02807809349298477,-0.28012208742862565,0.03182093328312039
1713449315778882800,0.9578828125,-0.1222457389652729,-0.07388342072591185,-0.05507803636044264
1713449315788956700,0.967956787109375,-0.32381402097046375,0.11132564622322097,-0.016166121903061867
1713449315799029800,0.97802978515625,-0.4870820906758308,0.1131479662795551,0.0915535174511373
1713449315809103600,0.988103515625,-0.5123211613506078,0.02671595656061545,-0.04772986555472016
1713449315819176700,0.9981767578125,-0.49992754372358317,-0.008663052796572446,-0.14086509923934937
1713449315829250800,1.008250732421875,-0.439486811286211,-0.04171937309354543,-0.049643151830136775
1713449315839323600,1.01832373046875,-0.2750456061482429,-0.1650531995564699,0.04352963738590478
1713449315849397800,1.028397705078125,-0.16951485514044762,-0.21348025359511374,0.019194091422110794
1713449315859470600,1.038470703125,-0.1584966175198555,-0.11674831059277056,-0.03679594521671534
1713449315869544700,1.048544677734375,-0.17770868299007414,-0.005625055073853582,-0.10017799180299043
1713449315879618600,1.05861865234375,-0.19512509721517562,0.03442534362785518,-0.21830460501164198
1713449315889692000,1.06869189453125,-0.10569500165879726,0.0077052588813938195,-0.2806457642428577
1713449315899765800,1.078765869140625,-0.022841946405172345,-0.1635682764946483,-0.23445918260738252
1713449315909838600,1.088838623046875,0.11026596283614634,-0.4105615994445979,-0.25441037600710986
1713449315919912700,1.09891259765625,0.41432782011032104,-0.2081494504937902,-0.13464227920174598
1713449315929985800,1.10898583984375,0.5469914927154779,0.16359788618162274,0.14574746445342898
1713449315940059600,1.1190595703125,0.33734336462914943,0.1946039228852838,0.32758608685508367
1713449315950132700,1.1291328125,0.19359423438608644,0.032678207699581976,0.24169775555878875
1713449315960206800,1.139206787109375,0.3048012774646282,-0.11190635045431553,0.14990151539295912
1713449315970279700,1.14927978515625,0.4730862985491752,-0.13007219480723142,0.1803831628963351
1713449315980353800,1.159353759765625,0.5204132823914289,-0.15449867045748977,0.24097148711085317
1713449315990427000,1.169427001953125,0.3793471076220274,-0.19735075564170254,0.21594255205541849
1713449316000500700,1.179500732421875,0.06559680002629757,-0.1894461017306894,0.09386968543902038
1713449316010573600,1.189573486328125,-0.18239713306725025,-0.11857483190018683,0.01955138042718172
1713449316020647700,1.199647705078125,-0.19331074126958847,-0.030289449399523435,-0.08458806235268712
1713449316030720800,1.209720703125,-0.13164777356088161,-0.022314634595438837,-0.09017112318202852
1713449316040794600,1.219794677734375,-0.14591478384435175,-0.1491953764175996,-0.13039309732466936
1713449316050867700,1.22986767578125,-0.16790566637814044,-0.2564743410659022,-0.19496932213157414
1713449316060941800,1.23994189453125,-0.21037819592654705,-0.22840039402507245,-0.15942659184634683
1713449316071014700,1.2500146484375,-0.33114684807658196,-0.17015426728883756,-0.16472689021155237
1713449316081088800,1.2600888671875,-0.36309623004496094,-0.1503685118502006,-0.21061799603179096
1713449316091162600,1.27016259765625,-0.22479893546700477,-0.14947631225083022,-0.24726328073143958
1713449316101235700,1.280235595703125,-0.10721651213765143,-0.15835132729765028,-0.24362682392522692
1713449316111309800,1.290309814453125,-0.06221124924123287,-0.14382307226210833,-0.15087050655558704
1713449316121382700,1.300382568359375,-0.02633446469604969,-0.12564551920508965,-0.03101736181527376
1713449316131456500,1.31045654296875,0.02166238123178482,-0.08346738775968551,0.029162527728825806
1713449316141529900,1.32052978515625,0.09421148461401462,-0.03686402375055477,0.05804083168879151
1713449316151603700,1.330603759765625,0.218770761218667,-0.006221029939316213,0.04636895246505737
1713449316161676500,1.340676513671875,0.2821820338994264,0.014512692140229046,0.09671382282376288
1713449316171750700,1.350750732421875,0.20280980649888514,-0.004482935834024101,0.20448994160555303
1713449316181823700,1.36082373046875,0.16708616668879986,-0.017424396602157503,0.32825821396298704
1713449316191897600,1.370897705078125,0.21132804399728775,-0.006701141606457531,0.31377639188505707
1713449316201970700,1.380970703125,0.26902678425014015,-0.02824855468906462,0.2737788741480559
1713449316212044800,1.391044921875,0.27066169197559353,-0.03304048340702429,0.27842933030240236
1713449316222117600,1.40111767578125,0.24661855308711528,-0.03523932689186186,0.2766545026496053
1713449316232191700,1.411191650390625,0.16524375369250774,-0.03980027813185006,0.23338059359043836
1713449316242264800,1.421264892578125,0.06146832191944122,-0.059357613375782964,0.1591109500259161
1713449316252338700,1.431338623046875,-0.01400222186744213,-0.07404631967004388,0.07380860192403196
1713449316262411800,1.441411865234375,-0.044857378858327863,-0.09484148961324244,0.02578589090257883
1713449316272485600,1.451485595703125,-0.12739420776963234,-0.08229585976228117,-0.020675269890576598
1713449316282558700,1.461558837890625,-0.20165362220108507,-0.05385419365391135,-0.03876958337724209
1713449316292632800,1.4716328125,-0.20232173072099685,-0.059596792426519093,-0.07367080088853836
1713449316302705700,1.48170556640625,-0.17851941485106945,-0.08320601514345034,-0.13943404352292418
1713449316312779800,1.49177978515625,-0.16876666712164878,-0.09550532381683588,-0.1257002633333206
1713449316322854000,1.50185400390625,-0.1487310103088617,-0.08530936236456035,-0.07704816836714744
1713449316332926700,1.5119267578125,-0.08056757466495036,-0.09034531070515513,-0.04207300883680582
1713449316343000600,1.52200048828125,-0.031335049462318416,-0.08138004182530567,0.0005998655892908573
1713449316353074000,1.532073974609375,-0.01815934154689312,-0.07207644436918198,-0.013890578186511992
1713449316363147800,1.542147705078125,0.04553191711902618,-0.056112037316989154,0.038703824664652345
1713449316373220600,1.552220703125,0.09711538936197757,-0.07369947899375111,0.09385112686902285
1713449316383294700,1.562294677734375,0.07222703182101249,-0.13725074466709047,0.03296864201352
1713449316393367800,1.572367919921875,0.04127484419643879,-0.16104812863357365,0.0006415127739310264
1713449316403441700,1.582441650390625,0.06587737053334712,-0.13877353378757834,0.05316168134510517
1713449316413514500,1.592514404296875,0.08333177868127822,-0.11658630669778212,0.07505641002804041
1713449316423588900,1.6025888671875,0.07261047818064689,-0.11840659919381141,0.022356208714842795
1713449316433661700,1.61266162109375,0.05780570775866508,-0.13177333616930992,-0.011988982348889113
1713449316443735800,1.62273583984375,0.0474614238768816,-0.06908416721802205,0.03676189681664109
1713449316453809000,1.632808837890625,-0.017303016978502273,-0.03231799608506262,0.0005609948836266994
1713449316463882800,1.6428828125,-0.01662964776158333,-0.043856732182111585,-0.04284684275351464
1713449316473955600,1.65295556640625,0.039517771396040915,-0.060695383051875974,-0.040653278231993314
1713449316484029700,1.66302978515625,0.020507950499653815,-0.0912959442271851,0.006943535527586937
1713449316494102800,1.673102783203125,0.006270750832557678,-0.04487217456866056,0.026277473811805247
1713449316504176600,1.6831767578125,-0.04194003010690212,-0.07446478254413232,0.029328312749788164
1713449316514250800,1.693250732421875,-0.007535656201839446,-0.07880688513536006,0.007263122870773076
1713449316524323600,1.703323486328125,0.060037996855378147,-0.0598824409674853,-0.0044490152981132266
1713449316534398000,1.71339794921875,0.04520224677324295,-0.04237080447329208,-0.006036430620029568
1713449316544470800,1.723470703125,-0.056041036173701285,-0.032757702676579355,0.03827376268431544
1713449316554544600,1.733544677734375,-0.030471126109361646,-0.05899495407585054,0.07927709646299481
1713449316564617700,1.74361767578125,0.055092941668629644,-0.05494863782711327,0.04957914668321609
1713449316574691800,1.75369189453125,0.09913432796895504,-0.07221546924738213,0.034326632493734355
1713449316584764700,1.7637646484375,0.08979775982499122,-0.10824362669568509,0.07039360584877431
1713449316594838500,1.773838623046875,0.05568915399610996,-0.1570836819820106,0.07520838571935892
1713449316604911900,1.783911865234375,0.018130699974298475,-0.11801599244102835,0.07084777935706078
1713449316614985700,1.79398583984375,0.01574292805492878,-0.11616214473526924,0.03586158697605133
1713449316625058600,1.80405859375,0.02794482250213623,-0.11614168646913021,0.050452130125463006
1713449316635132700,1.814132568359375,-0.06419570105671882,-0.10167878828737884,0.03685059801340103
1713449316645205800,1.824205810546875,-0.12453648025095462,-0.05232939523942768,0.01575564140602946
1713449316655279600,1.834279541015625,-0.050879707887768744,-0.04350494133606553,-0.00974105729162693
1713449316665352700,1.844352783203125,0.01918926911652088,-0.08846320501929149,-0.00515687130652368
1713449316675426800,1.8544267578125,-0.039400867018103594,-0.10518312488021328,0.018483970391377804
1713449316685499600,1.864499755859375,-0.11535071875452994,-0.0557292668107897,0.006318754692748189
1713449316695573800,1.87457373046875,-0.06930676046013831,-0.0699823581667617,-0.016974515676498412
1713449316705646800,1.884646728515625,0.034389176335930825,-0.06920182051463052,-0.02188084628805518
1713449316715720700,1.894720703125,0.06625263358652592,-0.07683293644757941,0.001383344117179513
1713449316725794800,1.904794921875,0.022065116813778877,-0.08318783103278837,0.010961538997292518
1713449316735867600,1.91486767578125,0.0065425535112619395,-0.07506118666785769,0.03659947279654443
1713449316745941800,1.924941650390625,0.04398761028647422,-0.06414290229040198,0.013620748269185422
1713449316756014600,1.9350146484375,0.028992285728454588,-0.06184738436490297,0.03670724401995539
1713449316766088400,1.94508837890625,0.04079845885634422,-0.04880312080942094,0.06558532878421247
1713449316776161800,1.955161865234375,0.10876841775476932,-0.0717490755783394,0.07327018419839441
1713449316786235600,1.965235595703125,0.11187515159845351,-0.1083586222443264,0.08680230433605611
1713449316796308500,1.97530859375,0.02631342190802097,-0.08297792374230921,0.08844904862977564
1713449316806382600,1.985382568359375,0.001911386579275131,-0.07472177124619483,0.0661944736585021
1713449316816455700,1.99545556640625,0.04169043926000595,-0.07204035014249384,0.025140140344947576
1713449316826529500,2.005529541015625,0.07922668145000934,-0.08679397489912807,0.022744185119122264
1713449316836602600,2.0156025390625,0.03744505677521229,-0.09296630685850978,-0.0032372283555567264
1713449316846676500,2.025676513671875,-0.03814531399905682,-0.0781057145960629,-0.016763211013376713
1713449316856749600,2.03574951171875,-0.036684009274840355,-0.08489153881128877,-0.010296060825884341
1713449316866823700,2.04582373046875,0.008499532797932625,-0.06323281084131449,-0.03040478287488222
1713449316876896500,2.055896484375,-0.004662146592140198,-0.0600839366226457,-0.029871333585307
1713449316886970600,2.065970703125,0.03259410961270332,-0.0764552074426785,-0.044685675553232426
1713449316897043700,2.076043701171875,-0.014352350479364393,-0.052910336932539936,-0.020481208623200655
1713449316907117600,2.08611767578125,-0.0388169296503067,-0.07007858508285135,-0.020664090909436345
1713449316917191400,2.09619140625,-0.025378186884522435,-0.07291391810663043,0.015934943495690822
1713449316927264800,2.1062646484375,0.017124153280258177,-0.0640821211470291,0.008133183703571557
1713449316937338600,2.116338623046875,0.02072305455505848,-0.08929865119643508,0.013938655111938715
1713449316947411500,2.126411376953125,0.021599837389588355,-0.0836046225395985,0.02119045287109911
1713449316957485600,2.136485595703125,-0.001003039562702179,-0.06819916454441845,0.033584435824304815
1713449316967558700,2.14655859375,0.029826398465037342,-0.10250983228404074,0.014490005384385584
1713449316977632500,2.156632568359375,0.06739537388086318,-0.11437847618889063,0.03784238552972674
1713449316987705600,2.16670556640625,-0.010651157873868942,-0.07192775661349296,0.07091726439669728
1713449316997779700,2.17677978515625,0.030418519139289855,-0.11487451607752591,0.06655855773054063
1713449317007852500,2.1868525390625,0.03678396251797676,-0.08352456130702048,0.04862316113263368
1713449317017926700,2.1969267578125,-0.013765490502119063,-0.08293930876497178,0.05905168923176825
1713449317027999700,2.206999755859375,0.02905482957065105,-0.09253039965927601,0.07047419680431485
1713449317038073600,2.217073486328125,-0.012440379378199577,-0.08803666843660175,0.06137662504799664
1713449317048146400,2.227146484375,-0.03377192122042179,-0.09515221779653801,0.04105966707579791
1713449317058220500,2.237220458984375,-0.012131167298555373,-0.07856288377903402,0.0519784629099071
1713449317068293600,2.247293701171875,0.0004904138654470443,-0.09061826416132972,0.04442782833464443
1713449317078367700,2.25736767578125,-0.018885902255773544,-0.07628664594274014,0.023941578210145233
1713449317088440600,2.267440673828125,-0.02327566164731979,-0.05877959429211914,0.04170351793728769
1713449317098514400,2.277514404296875,-0.028265140497684478,-0.07153620001263916,-0.0008288520395755767
1713449317108587500,2.28758740234375,-0.0024298574954271317,-0.06980932142110541,0.007680033108592033
1713449317118661600,2.29766162109375,0.009779051214456557,-0.07249242302523926,-0.0002533171739429235
1713449317128735500,2.307735595703125,0.03259410961270332,-0.07328677000701427,0.00810585730522871
1713449317138808600,2.31780859375,0.031498131069540976,-0.0847250231379643,0.03241816852390766
1713449317148882700,2.327882568359375,-0.02051028858721256,-0.07980048101628198,0.004800166823342443
1713449317158955500,2.33795556640625,-0.019404373171925542,-0.06868968800771981,0.027350582936033607
1713449317169029600,2.348029541015625,0.05456453388035297,-0.08619518702207132,0.028028774458542464
1713449317179102700,2.358102783203125,0.03981938469111919,-0.07681238684989511,0.014017419436573982
1713449317189176600,2.368176513671875,0.023547464326024056,-0.08068747471757233,0.005164470091089606
1713449317199249400,2.37824951171875,-0.005641805279254913,-0.0773247202862054,0.017786270450800657
1713449317209323500,2.388323486328125,0.027127076378464697,-0.092310327167809,0.016284049194306136
1713449317219396600,2.398396728515625,0.04223521366119384,-0.06555537203736603,0.012100187638401984
1713449317229470500,2.408470458984375,0.006885667860507965,-0.06816020250720903,0.028920900992676614
1713449317239543600,2.41854345703125,0.005203998383879661,-0.0795524793382734,0.02857522936016321
1713449317249617700,2.42861767578125,0.01831657793521881,-0.08742925886167213,0.011796382386237382
1713449317259690500,2.4386904296875,0.01764262419641018,-0.08965042377617209,0.012219137842953205
1713449317269764600,2.4487646484375,0.0033849662631750105,-0.09410661773374304,0.03635777299515903
1713449317279837700,2.458837646484375,0.00499532406926155,-0.08303106043534353,0.04665631803907454
1713449317289911600,2.46891162109375,0.023916882160305974,-0.07339158208835869,0.020174334631115197
1713449317299985700,2.478985595703125,0.01472118379175663,-0.07257686817198991,0.025486688760295508
1713449317310058500,2.48905859375,0.003441664886474609,-0.07111799286687746,0.024595731269940732
1713449317320132600,2.499132568359375,-0.008275076392292975,-0.08951306113209574,0.012195756967365742
1713449317330205700,2.509205810546875,0.0031797990798950195,-0.08477501802584156,0.032147900215163824
1713449317340279600,2.519279541015625,0.013024901267886161,-0.08093649930888787,0.020695289765298365
1713449317350352600,2.5293525390625,0.001031096613407135,-0.07486695187054573,0.02383651040047407
1713449317360426800,2.5394267578125,-0.003178630036115646,-0.07691413019131868,0.02125672304034233
1713449317370499600,2.54949951171875,0.003231821528077125,-0.08177600060664117,0.03443725326135754
1713449317380573400,2.559573486328125,0.02282908692359924,-0.08717340267077088,0.029521278038620948
1713449317390646800,2.569646728515625,0.023552140501141548,-0.06342840647865086,0.02415449030846357
1713449317400720600,2.579720703125,0.017699322819709776,-0.07934281864296644,0.018443273054808376
1713449317410793500,2.58979345703125,-0.005945756661891937,-0.09129212656859308,0.03818769183605909
1713449317420867600,2.59986767578125,-0.003703530693054199,-0.07506229177955538,0.05044496973231435
1713449317430940700,2.609940673828125,0.013334113347530364,-0.07845898501314222,0.032803222318738695
1713449317441014500,2.6200146484375,0.03129588649570942,-0.09339403075128794,0.027197072874754667
1713449317451087600,2.630087646484375,0.0362245750695467,-0.08378934972304851,0.03579933539479971
1713449317461161700,2.64016162109375,-0.0015057283878326415,-0.07866449925629422,0.03475537929981947
1713449317471234600,2.650234619140625,0.007479542100429534,-0.08725209393016993,0.015826660815626382
1713449317481308700,2.66030859375,0.017376082214713096,-0.07622640365548432,0.027787586113810537
1713449317491382500,2.670382568359375,0.027269699719548224,-0.0709768856294453,0.01566942442730069
1713449317501455600,2.68045556640625,0.005737082347273826,-0.08023110925219952,0.009854965994879603
1713449317511529700,2.69052978515625,-0.002947159367799759,-0.083926073046308,0.018698928316310048
1713449317521602600,2.7006025390625,0.005440145227313041,-0.06717391314990818,0.04180515168085694
1713449317531676400,2.710676513671875,0.02489654084742069,-0.0699581005083397,0.00882752264328301
1713449317541749800,2.720749755859375,0.0413613534361124,-0.08169087960645556,0.020145766123756764
1713449317551823600,2.73082373046875,0.021009470281004906,-0.07123769199009984,0.023876915476098656
1713449317561896400,2.740896484375,-0.0008376198679208755,-0.09369345208927989,0.016271628104150296
1713449317571970800,2.750970703125,0.002148117944598198,-0.08059190538860857,0.026790976291894912
1713449317582043600,2.761043701171875,0.013503040173649786,-0.09139222594220191,0.02469517305642366
1713449317592117500,2.771117431640625,0.0376058002948761,-0.09111958301328123,0.019068565346300602
1713449317602190600,2.781190673828125,0.029812954461574552,-0.08712287805993109,0.023386940002068875
1713449317612264700,2.7912646484375,0.007946575090289116,-0.07856032649576664,0.0280506209641695
1713449317622337500,2.801337646484375,-0.009417232164740563,-0.08823306779153645,0.020009572523459793
1713449317632411400,2.811411376953125,0.01108604215979576,-0.07639832615628839,0.018638430300727486
1713449317642484700,2.821484619140625,0.033251112216711044,-0.08679174640942365,0.01667626338228583
1713449317652558600,2.83155859375,-0.0026239187628030775,-0.07838710708701982,0.01638495228551328
1713449317662631400,2.84163134765625,-0.01922024877667427,-0.08018893234459683,0.0013335136260837317
1713449317672705500,2.85170556640625,-0.019649287843704222,-0.0789705877970904,0.030793197670578955
1713449317682779600,2.861779541015625,0.020483400580286977,-0.07434541221447288,0.02034793763235211
1713449317692852500,2.8718525390625,0.03218728237748146,-0.0748315882962197,0.02652648013681173
1713449317702926600,2.881926513671875,0.018570260435342788,-0.06271817585006356,0.031612770425155756
1713449317712999700,2.891999755859375,0.005999532675743103,-0.07175892111891881,0.017995894613489508
1713449317723073500,2.902073486328125,0.015236732098460196,-0.08307995934467763,0.03358217080198228
1713449317733146600,2.912146728515625,0.013731588232517241,-0.08705485432501882,0.02511296007707715
1713449317743220500,2.922220458984375,0.031090719312429425,-0.08882555379197,0.027645108903199433
1713449317753293600,2.93229345703125,0.031847090637683866,-0.08879939643740653,0.031188188337534666
1713449317763367400,2.942367431640625,0.002083236014842987,-0.08261387620288878,0.020610095699876544
1713449317773440300,2.952440185546875,-0.017055764219164847,-0.06502837075488642,0.013150208147987723
1713449317783514600,2.9625146484375,0.002110708543658256,-0.06858188025169074,0.01679923217482865
1713449317793587500,2.97258740234375,0.031603929531574246,-0.07382040195968001,0.02044452987462282
1713449317803661600,2.98266162109375,0.02459843468368053,-0.08481102092098444,0.007056932774186134
1713449317813734700,2.992734619140625,0.012922609937191009,-0.07143093127356842,0.012472016625478864
1713449317823808500,3.00280859375,0.003029576954245567,-0.06800481101609766,0.019770722266286612
1713449317833881300,3.01288134765625,0.013209025663137435,-0.07551186217796058,0.03874554491452872
1713449317843955500,3.02295556640625,0.024889526584744453,-0.07465458776149898,0.03600961714461445
1713449317854029300,3.033029296875,0.010214520022273063,-0.0704904355530627,0.01961867350973189
1713449317864102400,3.043102294921875,0.014843348866701125,-0.06824479378443211,0.019501549936085938
1713449317874176500,3.053176513671875,-0.0070125091105699535,-0.08004435450844466,0.016107523583620786
1713449317884249300,3.063249267578125,-0.00013677812218666077,-0.09154060317063703,0.03562142154462635
1713449317894323700,3.07332373046875,0.01243979485630989,-0.08666892374735326,0.018235183262079954
1713449317904396500,3.083396484375,0.015294015243649482,-0.08182510044537485,0.04197539368122816
1713449317914470400,3.093470458984375,0.006899696385860443,-0.07914064713437109,0.01979907157793641
1713449317924543500,3.10354345703125,-0.006594575959444046,-0.0799392501661554,0.03230126414597034
1713449317934617600,3.11361767578125,0.0031073183655738828,-0.07080443340567871,0.019313260822370646
1713449317944690400,3.1236904296875,0.013130699729919433,-0.0739006275890395,0.03281235547326505
1713449317954764300,3.133764404296875,0.007905074036121368,-0.07743925004396587,0.027045243313908576
1713449317964837600,3.143837646484375,0.003850830209255218,-0.09044420450236648,0.015360796869546174
1713449317974911500,3.153911376953125,0.005502689069509506,-0.08474960958994925,0.0407483361043036
1713449317984984300,3.163984375,0.007609890481829642,-0.0725544371444732,0.028342297387123107
1713449317995058400,3.174058349609375,-0.004788987842202186,-0.08510582088278607,0.015300371919199824
1713449318005131500,3.184131591796875,0.012566051584482192,-0.10823847559653221,0.009051467592269182
1713449318015205400,3.194205322265625,0.05386427665650844,-0.09675238300217315,0.024037439800053833
1713449318025279500,3.204279541015625,0.015274141499400137,-0.08293930876497178,0.028507863212376833
1713449318035352600,3.2143525390625,-0.03111585375368595,-0.07173577770534903,0.0449696801263839
1713449318045426400,3.224426513671875,-0.011353753185272215,-0.08019262213902548,0.014523688458278774
1713449318055499500,3.23449951171875,0.04627835157215595,-0.08330567612564191,0.008206541200727224
1713449318065573400,3.244573486328125,0.06093932960927486,-0.08356319455066695,0.02558795717768371
1713449318075646500,3.254646484375,-0.0049181671798229215,-0.0739384023161605,0.026439824766665697
1713449318085720600,3.264720458984375,-0.04085632652342319,-0.08112988472282887,0.042340865992754696
1713449318095793400,3.27479345703125,-0.022039982372522353,-0.07168419364858418,0.03262516233809292
1713449318105867300,3.2848671875,0.038273908814787864,-0.09106065590027719,0.014147475557029247
1713449318115940600,3.294940673828125,0.01672317126393318,-0.08922003300227224,0.02378872573599219
1713449318126014500,3.305014404296875,-0.01754676260650158,-0.08335313199656083,0.021289383200928567
1713449318136087300,3.31508740234375,-0.01035538979768753,-0.09279383636843412,0.0070006725423038
1713449318146161700,3.32516162109375,0.017494155636429785,-0.08102963921874762,0.017044877498969435
1713449318156234500,3.335234375,0.03802431796789169,-0.060887690753582864,0.029252471034601327
1713449318166308400,3.345308349609375,0.028326515296101567,-0.06626724663376808,0.020807152641937134
1713449318176382500,3.355382568359375,0.00455050291121006,-0.07581862657219171,0.03340732569172978
1713449318186455600,3.36545556640625,-0.00024140754044055937,-0.07038496588459238,0.02086341287381947
1713449318196529400,3.375529296875,0.025790859338641167,-0.0779383952051401,0.023283844953775404
1713449318206602500,3.3856025390625,0.020564064601063727,-0.07144724308755249,0.0022597616255283356
1713449318216676400,3.39567626953125,0.012330489262938499,-0.0928348624985665,0.013209317924082278
1713449318226749400,3.40574951171875,0.0063315411090850825,-0.08026389727694913,0.03529898465722799
1713449318236823600,3.415823486328125,-0.006681669721007347,-0.085909849008359,0.02567066702507436
1713449318246896400,3.425896484375,0.01052139401435852,-0.0886648102723062,0.016273235539346932
1713449318256970500,3.435970458984375,0.020687983241677282,-0.08479536669412627,0.004356295513361692
1713449318267043600,3.446043701171875,0.025920623198151586,-0.08010655129076913,0.013366919638589023
1713449318277117400,3.456117431640625,0.0004851531684398651,-0.07123383779888973,0.011389189824834466
1713449318287190500,3.4661904296875,-0.006702127987146377,-0.08219928578631952,0.009790157130360603
1713449318297264600,3.4762646484375,0.012166823133826256,-0.09090095356022938,0.0051829555958509445
1713449318307337500,3.48633740234375,0.02819265978336334,-0.07770031213294715,0.01343311674259603
1713449318317411300,3.496411376953125,0.024016250881552695,-0.05699514029445126,0.03830744575820863
1713449318327485400,3.5064853515625,0.007988660666346549,-0.08480959614887833,0.019430311330780384
1713449318337558500,3.51655859375,-0.002909749966859817,-0.07700023757219314,0.008597878605872392
1713449318347632400,3.52663232421875,0.013262801676988602,-0.06519106876961886,0.012667466132342814
1713449318357705500,3.53670556640625,0.02328501399755478,-0.07297595049217342,0.031254969963431356
1713449318367779600,3.546779541015625,0.03151800481379032,-0.08466061613224446,0.02689092953503132
1713449318377852400,3.556852294921875,0.02060147400200367,-0.0723857295140624,0.03162124599255621
1713449318387926500,3.566926513671875,0.004302665629982948,-0.08271043191254139,0.03631444531008601
1713449318397999600,3.57699951171875,0.012542670708894728,-0.08181224096380174,0.028325127056613563
1713449318408073500,3.587073486328125,0.033332360759377476,-0.08529496851302683,0.019435352832078933
1713449318418146300,3.597146240234375,0.024502573093771934,-0.08128213440878317,0.04488945449702442
1713449318428220400,3.607220458984375,0.024493805265426636,-0.07468322933409363,0.02161167395785451
1713449318438293500,3.61729345703125,0.007878770551085471,-0.08101042306162416,0.018667583329975604
1713449318448367400,3.627367431640625,-0.004992985981702804,-0.06525401447061449,0.008835340623557567
1713449318458440400,3.6374404296875,0.007433364871144294,-0.08202380135525017,0.011474018564075232
1713449318468514600,3.6475146484375,0.03393734091520309,-0.08893959035938605,0.017595350988581775
1713449318478587400,3.65758740234375,0.010620762735605239,-0.07226535453740507,0.010652034656703472
1713449318488661500,3.66766162109375,-0.002085574102401733,-0.07295246001873165,0.03357990577965975
1713449318498735400,3.6777353515625,-0.008954290828108787,-0.0792861382859759,0.039604061440005896
1713449318508808400,3.687808349609375,0.021298224094510078,-0.07212028351090848,0.01979001148864627
1713449318518882600,3.697882568359375,0.026395254972577095,-0.08164353333339094,0.029454642543196675
1713449318528955400,3.707955322265625,0.01502396613061428,-0.08029412801843136,0.017771803534030912
1713449318539029200,3.718029296875,-0.013551555490493774,-0.07360179077293723,0.022823095574229953
1713449318549102600,3.7281025390625,-0.0020364742636680604,-0.08145798416603356,0.023491496355086565
1713449318559176400,3.738176513671875,0.0062111295998096465,-0.08202179206125437,0.01887333503514528
1713449318569249300,3.748249267578125,0.03225391787290573,-0.08023609595457092,0.027957974244654175
1713449318579323600,3.75832373046875,0.019703648379445073,-0.08995368103906512,0.0035535277631133792
1713449318589396500,3.768396484375,-0.003028407910466194,-0.07429101514611393,0.014055413359403609
1713449318599470300,3.77847021484375,-0.000050268882513046264,-0.08051712311934679,0.0243646259278059
1713449318609543700,3.788543701171875,0.014456395375728607,-0.07618632737342268,0.020566256558150052
1713449318619617500,3.798617431640625,0.019236615389585494,-0.0712312987819314,0.021552052725106477
1713449318629691400,3.80869140625,0.01994096426665783,-0.08488452454861253,0.02072334681600332
1713449318639764500,3.818764404296875,-0.010337269619107246,-0.07344981508161873,0.006344692851603031
1713449318649838300,3.82883837890625,0.003510638469457626,-0.08265607137680053,0.023209391478076574
1713449318659911400,3.838911376953125,0.041434418672323226,-0.09549871141295879,0.032552973884716625
1713449318669985500,3.848985595703125,0.05659107127189636,-0.09605585210537537,0.03257679315172136
1713449318680058400,3.859058349609375,0.039539983227849004,-0.08426299511678516,0.03648629474565387
1713449318690132500,3.869132568359375,0.033813422274589534,-0.06720423522293567,0.048820364205166694
1713449318700205600,3.87920556640625,0.021133973443508147,-0.07800598054863513,0.05225362658947706
1713449318710279400,3.889279541015625,0.00452478394806385,-0.07810388796515762,0.06452551753297447
1713449318720352500,3.8993525390625,0.005692074161767959,-0.07990772251673042,0.029416356359422205
1713449318730426600,3.909426513671875,0.03217968359291553,-0.07147321777902543,0.018729761845991014
1713449318740499500,3.91949951171875,0.0646194794267416,-0.06814591825352981,0.04484386178962886
1713449318750573300,3.9295732421875,0.030537761604785916,-0.09785908386874943,0.07086568033993244
1713449318760647000,3.93964697265625,0.016721417698264122,-0.11200679688779637,0.08978921119235456
1713449318770720800,3.949720703125,0.06367664561867714,-0.11305710965832695,0.11636764071211218
1713449318780795000,3.959794921875,0.1455126327842474,-0.1361080409053713,0.07741364067867398
1713449318790867700,3.96986767578125,0.13324059571027755,-0.11645657937088981,0.06656462214514612
1713449318800941800,3.97994189453125,0.08066928147375584,-0.11731518722791225,0.07321428929269314
1713449318811014700,3.9900146484375,0.049125557696819304,-0.0870355468363501,0.03731266256719827
1713449318821088800,4.0000888671875,0.029897125613689422,-0.06016297494191676,0.019217033906280993
1713449318831161900,4.010161865234375,0.005937573355436325,-0.021144312174431978,-0.019931027394533157
1713449318841236000,4.020236083984375,-0.049799511435627934,-0.030240787952207027,-0.05655994548127055
1713449318851308800,4.030308837890625,-0.09442132797241211,-0.033419417988322674,-0.05426175154149532
1713449318861382700,4.040382568359375,-0.14929039775729178,-0.054215939638391136,-0.06134586458355188
1713449318871455700,4.050455810546875,-0.14808862075209617,-0.060376946486160155,-0.06193856977969408
1713449318881529900,4.06052978515625,-0.11735036813914775,-0.07262344726007432,-0.06600187369585037
1713449318891602700,4.070602783203125,-0.0730763421267271,-0.07642811850635334,-0.05071677241101861
1713449318901676500,4.080676513671875,-0.09693243401050566,-0.09176518744044006,-0.01568988269343972
1713449318911751000,4.0907509765625,-0.07016951476931571,-0.09993077557627111,0.013652677777409552
1713449318921823700,4.10082373046875,-0.03137596599459648,-0.06905099560078233,-0.0062840487055480475
1713449318931897900,4.11089794921875,0.006399930170178413,-0.06593923852210865,0.0203289406709373
1713449318941971000,4.120970947265625,0.0161298815459013,-0.07287234398722649,0.0407733244150877
1713449318952044800,4.131044921875,0.023967735564708707,-0.08121208311356604,0.04427227244675159
1713449318962117600,4.14111767578125,0.02793079397678375,-0.0793722274005413,0.07117620759382844
1713449318972191700,4.151191650390625,0.10407353793680667,-0.10591894660778343,0.07176730535477399
1713449318982264800,4.161264892578125,0.14376023615896702,-0.10070453642774373,0.07388795077055692
1713449318992338700,4.171338623046875,0.08189853100776671,-0.0855235896371305,0.06527998916208744
1713449319002411800,4.181411865234375,-0.019900632256269455,-0.08234643917204812,0.03828106920793652
1713449319012485600,4.191485595703125,-0.07093582296669483,-0.06541326015293598,-0.008651508489251137
1713449319022558700,4.201558837890625,-0.043648587590456006,-0.05504428022131323,-0.015682283908873794
1713449319032632800,4.2116328125,0.007940729871392249,-0.07750321865826845,-0.024641250912100076
1713449319042705700,4.22170556640625,0.06180500652790069,-0.0778741343298927,-0.029019173735380172
1713449319052779800,4.23177978515625,0.012047580668330192,-0.07733133269008248,-0.040702305005490776
1713449319062854000,4.24185400390625,-0.0732809247881174,-0.06974770916067063,-0.016950842539966104
1713449319072926700,4.2519267578125,-0.08986264175474643,-0.05425747722517699,-0.015225187791138886
1713449319083000600,4.26200048828125,-0.031977439019083974,-0.04799799670530483,-0.03894420929178595
1713449319093074000,4.272073974609375,-0.001924246060848236,-0.04858549600336701,-0.04425736713856458
1713449319103147800,4.282147705078125,-0.06268120484054088,-0.045321379640884694,-0.02612403681576252
1713449319113220600,4.292220703125,-0.08467617902755736,-0.05656590029802173,0.0038977380909025667
1713449319123294700,4.302294677734375,-0.0034913492470979688,-0.07965791247412563,0.01797317132502794
1713449319133367800,4.312367919921875,0.09034487231373786,-0.10877740477882325,0.04591989352330565
1713449319143441700,4.322441650390625,0.14666414090692997,-0.11091147593175991,0.07984758982732891
1713449319153514800,4.3325146484375,0.09900807124078273,-0.10691822331082075,0.04355857121944427
1713449319163588900,4.3425888671875,0.0593558598101139,-0.07830671706087887,0.0030690321817994116
1713449319173661700,4.35266162109375,0.04245674745738506,-0.0835476499216631,0.015340192472934722
1713449319183735800,4.36273583984375,0.012248071676492691,-0.0885696793347597,0.03950871130675077
1713449319193809700,4.3728095703125,-0.010022796842455862,-0.12146237003523856,0.049713440587371586
1713449319203882800,4.3828828125,0.006885667860507965,-0.12024972457615658,0.06358648311719298
1713449319213956900,4.392956787109375,0.04703881455063819,-0.13104041878487915,0.0707736181423068
1713449319224029700,4.40302978515625,0.06279577113091946,-0.10178438582001254,0.04172477992102504
1713449319234103600,4.413103515625,0.07864274408221245,-0.06206577635593712,0.01535787426009774
1713449319244177000,4.423177001953125,0.038682489615678786,-0.04103687072210014,0.00820800250545144
1713449319254250800,4.433250732421875,-0.04496083923280239,-0.03375785616245121,0.010475801306962967
1713449319264323600,4.443323486328125,-0.05629121154248714,-0.08451731693772599,0.031175913377851246
1713449319274398000,4.45339794921875,-0.009976619613170623,-0.10184305720468982,0.032361177639663216
1713449319284470800,4.463470703125,0.03442892382442951,-0.08819026982942596,0.013960720813274383
1713449319294544600,4.473544677734375,0.05024783972501754,-0.07224988297363742,0.017964549627155064
1713449319304618000,4.483617919921875,0.004569792133569717,-0.04641534889005124,0.007819003187865018
1713449319314691800,4.49369189453125,-0.07951894239485263,-0.03580894347336143,-0.01784793751016259
1713449319324764700,4.5037646484375,-0.06580547434091567,-0.04923670818740502,-0.015482085161656141
1713449319334838800,4.5138388671875,-0.016617957323789595,-0.10894417618047446,0.019473492885380982
1713449319344912600,4.52391259765625,0.06892682123184203,-0.11622973007876425,0.03912117329388857
1713449319354985700,4.53398583984375,0.10241817194521427,-0.1116721946385689,0.04380436267405748
1713449319365059800,4.544059814453125,0.09374445162415504,-0.0975247008152306,0.03492079899460077
1713449319375132700,4.554132568359375,0.055578679358959195,-0.07590277945799753,0.011135872650891542
1713449319385206800,4.564206787109375,0.009182254365086556,-0.06905368074821308,0.023662176746875048
1713449319395280000,4.57427978515625,-0.03948270008265972,-0.0850314222060144,0.03720978671461343
1713449319405353700,4.584353759765625,-0.03947451677620411,-0.10238036068547517,0.029626345848292112
1713449319415426800,4.5944267578125,0.034330139625072476,-0.08803904305677861,-0.0007462883226573467
1713449319425501000,4.6045009765625,0.047018356284499165,-0.07012428738810121,0.020086217956244944
1713449319435573800,4.61457373046875,0.05213526090681553,-0.06843732068184763,0.0007666004583239555
1713449319445647600,4.624647705078125,0.05470481913387775,-0.07435414351020007,0.0014344167172908782
1713449319455720700,4.634720703125,0.05742693757414818,-0.046103049804177135,-0.02728007498309016
1713449319465794800,4.644794921875,-0.021052724900841712,-0.038571083396766334,-0.05927256544083356
1713449319475868700,4.65486865234375,-0.08330722876191139,-0.0711851398189552,-0.016635931371897457
1713449319485941800,4.664941650390625,-0.07497253113687039,-0.08265654630083591,-0.0011642214737832546
1713449319496016000,4.675015869140625,-0.049478024396300314,-0.09667378307431936,0.017124007149785757
1713449319506088700,4.685088623046875,0.02049509101808071,-0.11178462377078831,0.04508768048286438
1713449319516162800,4.695162841796875,0.017139935371279714,-0.13366705922773106,0.05234685783088207
1713449319526236000,4.70523583984375,-0.009375146588683127,-0.10829930240567773,0.03869242648780346
1713449319536309800,4.715309814453125,-0.023199673801660537,-0.08330430615246295,0.003362462170422077
1713449319546382600,4.725382568359375,-0.015262451061606406,-0.04814988106507807,-0.01901946550756693
1713449319556456700,4.735456787109375,-0.021876900765299797,-0.027623536392208187,-0.052813452429324385
1713449319566529800,4.74552978515625,-0.06836918734908104,-0.0229874558230862,-0.04298983142077922
1713449319576603600,4.755603759765625,-0.10006547133922576,-0.05853161088041961,-0.037040129236131904
1713449319586676700,4.7656767578125,-0.06538695666790008,-0.07109572623614221,0.004625467843562364
1713449319596750800,4.775750732421875,-0.02543605455160141,-0.095418376185745,0.02357186811491847
1713449319606825000,4.785824951171875,0.04820668928623199,-0.10921066336324438,0.00933013840317726
1713449319616897800,4.795897705078125,0.04746726909577846,-0.09329484469313173,0.040215398271381854
1713449319626971600,4.8059716796875,0.018345219507813454,-0.07376932935956865,0.029103929409384725
1713449319637044700,4.816044677734375,-0.0021229835033416745,-0.061724013713560996,0.017254647792130706
1713449319647118800,4.826118896484375,0.01571370196044445,-0.07302494073305278,0.011354629968106746
1713449319657191700,4.836191650390625,0.052690556702017784,-0.0825387103411369,0.028553675115481018
1713449319667265500,4.846265625,0.03601999240815639,-0.07716797708822414,0.053250163346156475
1713449319677339000,4.8563388671875,0.02483691961467266,-0.09463637722888961,0.06081248835921287
1713449319687412700,4.866412841796875,0.035313889965415,-0.09081817064760252,0.03845905612334609
1713449319697485600,4.876485595703125,0.02991641483604908,-0.09884524536188691,0.03995280181244015
1713449319707560000,4.886559814453125,0.03135258511900901,-0.0898131765898317,0.046974005686119195
1713449319717632800,4.8966328125,0.04879354926347732,-0.10406663327198475,0.02278802426084876
1713449319727706600,4.90670654296875,0.038593057766556735,-0.1074295703664422,0.013879033879190683
1713449319737780700,4.91678076171875,0.017809212934970856,-0.10200769144818186,0.018548633125424385
1713449319747853800,4.926853759765625,-0.008003273713588714,-0.098595398786664,0.0036577918551862236
1713449319757926700,4.9369267578125,-0.0010603227078914642,-0.06463168132118881,-0.004985094936192035
1713449319767999700,4.946999755859375,0.04175006049275398,-0.04032448466904461,0.0031821371674537655
1713449319778073900,4.957073974609375,0.08323767065703869,-0.06356554992701859,-0.004370031777769327
1713449319788146700,4.967146728515625,0.09397650681436061,-0.05650207781419157,0.021404753208905457
1713449319798220800,4.977220703125,0.06150690036416053,-0.06665602675564587,0.02571216807924211
1713449319808294000,4.9872939453125,0.03927987098693848,-0.046200646693445736,0.0029494243901222942
1713449319818367700,4.99736767578125,0.03680032913088798,-0.07186400719489902,0.012955489293485879
1713449319828440600,5.007440673828125,-0.006523848810791969,-0.08009785652766004,-0.0019147475801408289
1713449319838514700,5.0175146484375,-0.01869827072918415,-0.08472153427293523,-0.016398688549920916
1713449319848587800,5.027587890625,-0.010046177718043326,-0.08197908543068916,0.005126110842078924
1713449319858661600,5.03766162109375,0.02553016257584095,-0.07617995243156328,0.05364413109980523
1713449319868735700,5.04773583984375,0.04157879557907581,-0.08376085428092628,0.0765652071557939
1713449319878808800,5.057808837890625,0.019741057780385016,-0.07031699694860725,0.07576426603645085
1713449319888883000,5.067883056640625,-0.01855272477865219,-0.06317512583732604,0.045512627896666526
1713449319898955800,5.077955810546875,-0.008531681501865387,-0.060949029019381845,0.04453991040699184
1713449319909029600,5.088029541015625,0.019465747970342635,-0.09346976286862045,0.030385055261105298
1713449319919102700,5.098102783203125,0.05240121836662292,-0.10160875525847077,0.013391981014609335
1713449319929176800,5.1081767578125,0.03512392035126686,-0.11585022924188523,0.03608180559799075
1713449319939249700,5.118249755859375,0.014814122772216796,-0.10909463576814159,0.040830242234095926
1713449319949323800,5.12832373046875,0.0433873063057661,-0.09280324351759626,0.040051074555143715
1713449319959396900,5.13839697265625,0.06238894389569759,-0.10394430380025878,0.05511464204378426
1713449319969470700,5.148470703125,0.06543781007230282,-0.11798968895599245,0.08638897429481149
1713449319979544800,5.158544921875,-0.004250643181800842,-0.08374938303884118,0.09523242515958845
1713449319989618000,5.168617919921875,-0.05615910959541797,-0.08772955698249861,0.07676109505407512
1713449319999691800,5.17869189453125,-0.036925416815280915,-0.0812374732831493,0.005096300225704908
1713449320009764600,5.1887646484375,-0.002201309436559677,-0.055394025240745395,-0.007510156434401869
1713449320019838700,5.198838623046875,-0.02207096203267574,-0.03997859384082258,-0.016579013552889228
1713449320029911800,5.208911865234375,-0.06775719293057918,-0.045618901282735165,-0.019335545719414947
1713449320039985700,5.218985595703125,-0.052803369426727295,-0.03350020987326279,-0.03787548408173024
1713449320050058800,5.229058837890625,0.01135842936038971,-0.05757213646480813,-0.025759222091361878
1713449320060132900,5.2391328125,0.061325114056468004,-0.057904784218966956,-0.0006083411566913128
1713449320070205700,5.249205810546875,0.011470657563209533,-0.06768078495981171,0.0543351821038872
1713449320080279800,5.25927978515625,-0.03597264613509178,-0.0840027367454022,0.05778671079725027
1713449320090353000,5.269352783203125,-0.06397708986997604,-0.09604065453624352,0.052876361597701906
1713449320100426800,5.2794267578125,-0.004709492865204811,-0.09604947716351597,0.007183335632830858
1713449320110500900,5.2895009765625,0.04835515784621239,-0.08419528190912678,-0.04034114354290068
1713449320120573700,5.29957373046875,0.027530981004238127,-0.05570435156524181,-0.05593304575458169
1713449320130647600,5.3096474609375,-0.014801263290643692,-0.046013124764710665,-0.05032726163677871
1713449320140721000,5.319720947265625,-0.059499067673087117,-0.03538268088530749,-0.04291464729271829
1713449320150794800,5.329794677734375,-0.015634206983447075,-0.032751199870556594,-0.023704627649113536
1713449320160867600,5.33986767578125,0.03782382695972919,-0.05874360966328531,0.00043466509021818637
1713449320170942000,5.34994189453125,0.03514437861740589,-0.06606050854790955,0.0011246201157569884
1713449320181014800,5.360014892578125,0.01045651208460331,-0.054789026818610725,-0.002742722836881876
1713449320191088600,5.370088623046875,0.007877601507306098,-0.06946480056606233,-0.0031608021184802056
1713449320201162000,5.380161865234375,0.039270518636703486,-0.09495207384824753,0.0051221653193235395
1713449320211235800,5.39023583984375,0.06333353126943111,-0.0905730002474971,0.002196487130969763
1713449320221308700,5.40030859375,0.05427519554495811,-0.08532930917404591,0.013875526747852564
1713449320231382800,5.4103828125,0.046505146065354344,-0.11053922681957483,0.037591114182397724
1713449320241456600,5.42045654296875,0.049045478197932244,-0.12989285618495194,0.03226188198365271
1713449320251529700,5.43052978515625,0.03017477351129055,-0.11593723167190327,0.021839710560068486
1713449320261603800,5.440603759765625,0.01353343531191349,-0.12052163685271516,0.009615092824399471
1713449320271676700,5.4506767578125,0.04538637116849422,-0.13433805382447317,0.01995871911905706
1713449320281750800,5.460750732421875,0.030866847428679463,-0.121195316596888,0.027356501220166682
1713449320291823900,5.470823974609375,0.02184007588624954,-0.0861693584610708,0.041516032541170714
1713449320301897700,5.480897705078125,0.03357318377792835,-0.07809252632092684,0.022620851000398397
1713449320311970800,5.490970703125,0.0269569805085659,-0.06451346176899969,0.0031860096249729393
1713449320322045000,5.501044921875,0.0016769933015108108,-0.0656807885153219,0.0032591479264199733
1713449320332117800,5.51111767578125,-0.03763677995502949,-0.0677690842977725,0.011260521943867206
1713449320342191600,5.521191650390625,-0.03696224169433117,-0.06817673351690173,0.02914345770217478
1713449320352265000,5.531264892578125,0.008625789526104927,-0.057829106900561596,0.0386758406791836
1713449320362338800,5.5413388671875,0.010920622465014457,-0.05552322284467518,-0.0012756459590047597
1713449320372412700,5.55141259765625,0.0004927519530057906,-0.057264513554051516,-0.0057266340184956785
1713449320382485800,5.56148583984375,0.018362170642614365,-0.051130540843680496,0.011872881688550115
1713449320392559900,5.571559814453125,-0.007016016241908073,-0.04490326382666826,0.016281564976274965
1713449320402632700,5.5816328125,-0.027478958556056022,-0.05235387209355831,0.017194003646075724
1713449320412706800,5.591706787109375,0.002167407166957855,-0.06568904488701373,0.011114829862862824
1713449320422780000,5.60177978515625,0.04530921427905559,-0.09770473355725406,-0.0005362988337874413
1713449320432853800,5.611853759765625,0.03790975167751312,-0.088550718905963,0.0023044044848531484
1713449320442926800,5.6219267578125,0.0017366145342588423,-0.0719441597590223,0.026426526893675327
1713449320453000700,5.632000732421875,-0.022658991053700447,-0.0606999678954482,0.0360571826133877
1713449320463073800,5.64207373046875,0.007281389179825782,-0.0906576645899564,0.02582951084859669
1713449320473148000,5.65214794921875,0.044294484278559684,-0.09583333192849532,0.020156433648243547
1713449320483221800,5.6622216796875,0.03970832553207874,-0.06597093056831509,0.037641017738729715
1713449320493294600,5.672294677734375,-0.019826397976279258,-0.07904690443631261,0.03678060151711106
1713449320503369000,5.682368896484375,0.01757365061342716,-0.09328393970662728,0.05356821631938219
1713449320513441800,5.69244189453125,0.0554565142840147,-0.109688455209136,0.059762687045335765
1713449320523515600,5.702515625,0.059600774481892584,-0.12480972596807405,0.08210873969234525
1713449320533588700,5.712588623046875,0.054904725620150564,-0.08553155374787748,0.09021678895466029
1713449320543662800,5.722662841796875,0.014241291320323942,-0.10802326194327325,0.08906096998304128
1713449320553735700,5.732735595703125,0.024127310040593146,-0.08937062045410275,0.08546484518721699
1713449320563809800,5.742809814453125,0.0220814834266901,-0.08425232759229838,0.05896591064445674
1713449320573883000,5.7528828125,0.004925765964388847,-0.08594590670242905,0.04003470794223249
1713449320583956700,5.762956787109375,0.00454699577987194,-0.08293689761217683,0.030126550455391404
1713449320594029600,5.773029541015625,-0.0025046762973070145,-0.09752904819678515,0.02410904373154044
1713449320604103700,5.783103759765625,0.00418926838338375,-0.09604554990706965,0.02441452948413789
1713449320614177800,5.793177734375,0.025070728370547295,-0.0862257465571165,0.015344137995690106
1713449320624250600,5.803250732421875,0.02682663212716579,-0.08981500322073697,-0.026580110020190475
1713449320634324700,5.81332470703125,0.019608371311426162,-0.06300926775112747,-0.02933423103392124
1713449320644397800,5.823397705078125,-0.02753565717935562,-0.05886080630216747,-0.024000541855767367
1713449320654472000,5.833471923828125,-0.06352876158058643,-0.04982038982687518,-0.05566621151193976
1713449320664544800,5.843544677734375,-0.06653028148412704,-0.05635207488425076,-0.037986762436479325
1713449320674618600,5.85361865234375,-0.029234277790784833,-0.07511007644403725,-0.018130699974298475
1713449320684691700,5.863691650390625,0.035759295645356175,-0.0848920685342513,0.011708631037548184
1713449320694765800,5.873765869140625,0.0363724591076374,-0.09071111181024462,0.03197042475640774
1713449320704838700,5.883838623046875,0.017309446719288826,-0.0870067773995921,0.030098347274214027
1713449320714912800,5.893912841796875,0.025266543203592298,-0.08865717495512217,0.04851823945343494
1713449320724987000,5.90398681640625,0.0535568181425333,-0.0737416559013538,0.015887085765972732
1713449320735059700,5.914059814453125,0.07241583239138126,-0.06189522382831201,0.012032163903489709
1713449320745133800,5.9241337890625,-0.0007516951501369476,-0.07643259375207126,0.024736016523465514
1713449320755207200,5.934207275390625,-0.010638882914185523,-0.07848574515590444,0.008710618265345691
1713449320765281000,5.944281005859375,-0.00047989247143268585,-0.07454140971060842,0.01155022560544312
1713449320775353900,5.954353759765625,0.06233867501318455,-0.09397142878044396,0.008393588205426931
1713449320785428000,5.964427978515625,0.0711158557087183,-0.08537212540246546,0.03476144371442497
1713449320795501000,5.9745009765625,0.01480477042198181,-0.07400246226200834,0.03771539814919233
1713449320805575000,5.984574951171875,-0.04887187519669532,-0.05300378736965358,0.015138970812410115
1713449320815648000,5.99464794921875,-0.02096563113927841,-0.10569573231115936,0.022517536756396294
1713449320825721900,6.004721923828125,0.06027122108936309,-0.09272559343781321,-0.0044015228945761915
1713449320835796000,6.0147958984375,0.028206103786826132,-0.07360654001329094,0.030512919424474236
1713449320845869000,6.024869140625,-0.035470541831851006,-0.06848364404160528,0.0289160786870867
1713449320855943000,6.03494287109375,-0.03073065382838249,-0.07277745051169768,0.01256933952011168
1713449320866016000,6.04501611328125,0.012203063490986822,-0.06934453518725932,-0.008407324469834566
1713449320876090000,6.055090087890625,0.018643910193443296,-0.06932641500867903,-0.00115494218878448
1713449320886163000,6.065162841796875,-0.002885200047492981,-0.08419800358917563,0.016509674643725155
1713449320896236800,6.07523681640625,-0.014805939465761184,-0.07574198113940656,0.012399608976393937
1713449320906310100,6.08531005859375,-0.01416997964978218,-0.07021275112284348,0.022726284136250614
1713449320916384000,6.095384033203125,0.015990180814266203,-0.08258318880368024,0.016583032140880822
1713449320926456800,6.105456787109375,0.033551556468009947,-0.09972705143140628,0.03147752667292952
1713449320936531000,6.115531005859375,0.035681554234027864,-0.09065960081871599,0.028857261171936988
1713449320946605000,6.12560498046875,0.02268061836361885,-0.0918404446337372,0.03342486134842038
1713449320956678000,6.135677978515625,0.03315232801735401,-0.08910842585396021,0.03262194746769965
1713449320966752000,6.145751953125,0.01249298634827137,-0.06608491233680397,0.019283669401705263
1713449320976825000,6.1558251953125,-0.015245499926805496,-0.060414209756627674,0.03140504595860839
1713449320986899000,6.16589892578125,0.020894903990626334,-0.09842594223758205,0.02109327610693872
1713449320996972000,6.175971923828125,0.06811784293651581,-0.09617936888718977,0.008354059912636876
1713449321007046000,6.1860458984375,0.01834697307348251,-0.07012264342028647,0.008684972367435694
1713449321017119000,6.196118896484375,0.009063596421480179,-0.09737327311318367,0.009815364636853337
1713449321027193000,6.206193115234375,0.0356973363250494,-0.10464465235564857,0.005888181255757808
1713449321037266000,6.216265869140625,0.05332008677721023,-0.06012936493325978,0.010273995124548673
1713449321047340000,6.226340087890625,0.015388123267889022,-0.08287110236696899,0.03546403902582824
1713449321057412900,6.236412841796875,0.021166706669330595,-0.07180776522932573,0.02600245626270771
1713449321067487000,6.246487060546875,-0.015194062000513075,-0.0691213026243262,0.01467332606203854
1713449321077560800,6.256560791015625,-0.047183775979280466,-0.0589997215825133,0.006491334780678153
1713449321087634200,6.26663427734375,-0.020879706421494483,-0.06154220913955941,0.016497472749277948
1713449321097708000,6.2767080078125,-0.0386643694370985,-0.09223885110048577,0.015300225788727402
1713449321107780900,6.28678076171875,-0.0191448454529047,-0.08784757560528814,-0.005072773219645023
1713449321117855000,6.29685498046875,-0.017075053441524504,-0.08300009904149919,-0.0004734627306461334
1713449321127928000,6.306927978515625,-0.03937222544550895,-0.085753891261667,0.008694909239560365
1713449321138002000,6.317001953125,0.024229016849398613,-0.0822680401735939,0.006048413318768144
1713449321148074800,6.32707470703125,0.04374854083359241,-0.07131287611816078,-0.03630370472036302
1713449321158149000,6.337149169921875,0.01772270369529724,-0.07165843815281987,-0.012850421483814715
1713449321168222000,6.347221923828125,0.02289279980957508,-0.08043625816917047,0.009723375504463911
1713449321178296000,6.357296142578125,0.03134615537822246,-0.056028615083545445,0.0070285834625363345
1713449321188370000,6.367369873046875,0.03872457519173622,-0.06497647617086767,0.03864931799843907
1713449321198443000,6.377443115234375,0.04587620051205158,-0.08664952492713927,0.035880730067938564
1713449321208517000,6.38751708984375,0.013963643422722816,-0.07550649188309908,0.03738587393388152
1713449321218590000,6.39758984375,-0.00987958897948265,-0.061275831554643806,0.024749387461692092
1713449321228663800,6.407663818359375,0.0005383446604013442,-0.09431834252197295,0.014127601812779902
1713449321238737000,6.41773681640625,0.015790274327993393,-0.07447349557355046,0.010485445918142796
1713449321248811000,6.42781103515625,0.012466682863235472,-0.074298321669735,-0.003178337775170803
1713449321258883800,6.4378837890625,0.022308277919888497,-0.07823409021608531,0.002017623432725668
1713449321268958200,6.447958251953125,0.009973112481832504,-0.08454915511440485,0.013345584589615463
1713449321279031000,6.458031005859375,0.010077741900086402,-0.09846450241599232,0.017021935014799237
1713449321289105000,6.46810498046875,0.026506314131617543,-0.06509429386425764,-0.004892521281912922
1713449321299179000,6.478178955078125,0.010493921485543251,-0.0752217566575855,-0.0006781915225088596
1713449321309252000,6.488252197265625,-0.0032698154509067535,-0.07974186443053186,0.014117957201600074
1713449321319326000,6.498325927734375,-0.041243864536285396,-0.06548442569300532,0.023989143678918478
1713449321329398800,6.508398681640625,-0.03144786218702793,-0.08483096773047,0.013685191807523369
1713449321339473000,6.518472900390625,-0.006526186898350716,-0.08905947214569895,0.008717851723730564
1713449321349546000,6.5285458984375,0.03426116604208946,-0.09213564645433799,0.017792480995878577
1713449321359619800,6.538619873046875,0.03253682646751404,-0.07956106450352818,0.019509367916360498
1713449321369693000,6.54869287109375,0.00507248095870018,-0.07884140845946967,0.01912979401424527
1713449321379767000,6.55876708984375,-0.008526420804858208,-0.07026533982660621,0.02516089087203145
1713449321389840000,6.56883984375,-0.0018915128350257872,-0.07006912313476205,0.023292028260231017
1713449321399914000,6.5789140625,0.03364449544847011,-0.08204400389306246,0.0057019379686564205
1713449321409987800,6.58898779296875,0.020074819779396055,-0.07579330946784466,0.01567643868997693
1713449321420061000,6.59906103515625,-0.005018120422959327,-0.07369052850231528,0.023806992045044897
1713449321430135000,6.609135009765625,0.0012964695513248442,-0.07966907318895682,0.007359203656390309
1713449321440208000,6.619207763671875,0.014641104292869567,-0.08399521102607249,0.01554156026393175
1713449321450282000,6.629281982421875,0.05146364525556564,-0.08633715277602895,0.023120398020371795
1713449321460355000,6.63935498046875,0.04695815052986145,-0.07763862680727615,0.023422303576394913
1713449321470429000,6.649428955078125,-0.011697452056407927,-0.0670694298621267,0.03328611046485603
1713449321480502000,6.659501953125,-0.0069172320425510405,-0.0751089804654941,0.012546908492594957
1713449321490576100,6.669576171875,0.00327039997279644,-0.08685648220870644,0.0030332302160561084
1713449321500649000,6.67964892578125,0.016611527583003043,-0.07791379048684612,0.010458046454563736
1713449321510722800,6.689722900390625,0.011699790143966673,-0.07892757063927129,0.012185308638587593
1713449321520797000,6.699796875,-0.01595686306655407,-0.07936981624774635,0.012269845116883515
1713449321530870000,6.7098701171875,-0.006821954974532127,-0.07969422589652239,0.007404138776659965
1713449321540944000,6.71994384765625,0.00010053776502609253,-0.09029836629088968,0.017560498870909214
1713449321551017000,6.730016845703125,0.009297405177354811,-0.07198299393206835,0.011055647021532057
1713449321561091000,6.740091064453125,0.014396774142980575,-0.06163777846852317,-0.008445391457900405
1713449321571164000,6.750163818359375,-0.0006856441766023635,-0.07211895007034763,-0.016901085114106536
1713449321581238000,6.760238037109375,-0.014859715479612349,-0.0764858400429599,-0.004813464696332812
1713449321591311000,6.77031103515625,0.010914192724227905,-0.08132416518591344,0.021234218947589395
1713449321601385000,6.780385009765625,0.028313655814528462,-0.09691672498472034,0.03931077758185565
1713449321611458000,6.7904580078125,0.020998364365100858,-0.09409231521375477,0.023613369169086216
1713449321621532000,6.800531982421875,0.0031909049957990644,-0.0902853789451532,0.013433555134013295
1713449321631605800,6.810605712890625,-0.008350479716062545,-0.08367564194919541,0.024383915150165556
1713449321641679000,6.82067919921875,0.01528232480585575,-0.0763606610270217,0.011443477295339106
1713449321651753000,6.8307529296875,0.019635843840241432,-0.07499267887575552,0.00609429828710854
1713449321661825800,6.84082568359375,0.012331073784828185,-0.10108867690712213,-0.00531929532662034
1713449321671900200,6.850900146484375,0.024202713364362714,-0.1003236108187586,0.015243600230664013
1713449321681973000,6.860972900390625,-0.008649754923582076,-0.0882402281846851,0.03263371097072959
1713449321692046800,6.871046875,-0.028686580780148505,-0.06844543092306703,0.02365384730994701
1713449321702120200,6.8811201171875,-0.0023047698110342024,-0.0633202516627498,0.01355477036088705
1713449321712194000,6.891194091796875,0.032656068933010096,-0.07798800650052726,0.010260258860141038
1713449321722267000,6.901266845703125,0.004018587991595268,-0.06142272921204567,0.012955270097777246
1713449321732341000,6.911341064453125,-0.04422960234880447,-0.0718342331111431,0.006444865290448069
1713449321742414800,6.921414794921875,-0.007926701346039771,-0.07399678143989294,-0.008645224878937005
1713449321752488000,6.931488037109375,0.04128185845911503,-0.08295207691499963,0.005029591665044427
1713449321762562600,6.9415625,0.05785773020684719,-0.08342961303256452,-0.008604162216186522
1713449321772635400,6.951635498046875,0.033363924941420556,-0.10187410993007942,0.020249664889648557
1713449321782709200,6.961709228515625,0.02346738482713699,-0.09584957067724317,0.029135785852372646
1713449321792782600,6.971782470703125,0.026992051821947097,-0.0883685307394713,0.01984729463383555
1713449321802856400,6.9818564453125,0.055792614370584484,-0.07184332973305135,0.003026362083852291
1713449321812929300,6.99192919921875,0.03220540255606174,-0.08142786302240565,-0.0017195903342217206
1713449321823003600,7.002003662109375,-0.00783610045313835,-0.06914101197179406,-0.0014558978967368602
1713449321833077500,7.012077392578125,-0.02139700829386711,-0.05072216097218916,0.013070786236226558
1713449321843150300,7.022150390625,-0.011132803910970688,-0.0845711112178862,0.0072800740055739875
1713449321853224400,7.032224365234375,0.043480829808115955,-0.08283120874799788,0.004205050474405289
1713449321863297500,7.042297607421875,0.004120294800400734,-0.08409059769194573,0.009222805571183561
1713449321873371400,7.052371337890625,-0.018627543580532074,-0.08577301608724519,0.01708330981321633
1713449321883444500,7.062444580078125,-0.01007131215929985,-0.06639677303126082,0.014381649639084934
1713449321893518300,7.072518310546875,0.020803718575835226,-0.06673435268886387,0.03226020148321986
1713449321903591400,7.08259130859375,0.012469605472683906,-0.07223318756716325,0.025199834642931816
1713449321913665500,7.09266552734375,0.023012042275071143,-0.08955602349098771,0.012993190955370664
1713449321923738400,7.10273828125,-0.004490297156572342,-0.09602171237375587,0.025616525685042142
1713449321933812500,7.1128125,-0.014014496827125548,-0.06997757239378988,0.014391440380737185
1713449321943886600,7.122886474609375,-0.00811199478507042,-0.08706391441430895,0.006646598407626152
1713449321953959400,7.13295947265625,0.013362170398235321,-0.09284512816425412,0.0105320615388453
1713449321964033300,7.143033203125,0.01914133832156658,-0.09018390959836542,-0.0017399755351245403
1713449321974106600,7.153106689453125,0.01892564974427223,-0.08521423142701387,-0.0010791004735976456
1713449321984180500,7.163180419921875,-0.004804185411334038,-0.0789138891737908,0.01127776533961296
1713449321994253300,7.17325341796875,0.00019873744249343872,-0.07084631805233657,-0.0064805941909551615
1713449322004327400,7.183327392578125,0.011222235760092734,-0.08267196306567638,0.0040543899573385715
1713449322014400500,7.193400390625,0.02447743865251541,-0.07370245640212669,0.02384622807689011
1713449322024474400,7.203474365234375,0.017836685463786126,-0.0756916026590392,0.017555384304374456
1713449322034547500,7.21354736328125,0.0150666362285614,-0.0759130268573761,0.010811463002115487
1713449322044621600,7.22362158203125,-0.014335399344563484,-0.06527653682967648,0.009714096219465135
1713449322054695400,7.2336953125,0.0040068975538015365,-0.06838964561522007,0.0045090018570423124
1713449322064768500,7.2437685546875,0.026540800923109054,-0.07378872817978263,0.015757614167407154
1713449322074842400,7.25384228515625,0.04067161760628223,-0.0782415063375607,0.011184387967735528
1713449322084915500,7.26391552734375,0.03950725000202655,-0.0881706700798124,0.01887757281884551
1713449322094989600,7.273989501953125,0.0400935254573822,-0.09411196976229548,0.027823095818609
1713449322105062400,7.2840625,0.0063935004293918605,-0.07440808392083272,0.003552066458389163
1713449322115136500,7.294136474609375,0.020261866784095764,-0.08478827936621382,0.005875833230838179
1713449322125209600,7.304209716796875,0.03877542859613895,-0.07849175477158278,-0.00007423427999019622
1713449322135283500,7.314283447265625,0.03780746034681797,-0.06988024949915707,0.013805457186326383
1713449322145356500,7.3243564453125,-0.0008691840499639511,-0.07001149292970076,-0.0009100275170058011
1713449322155430700,7.3344306640625,-0.005994271978735924,-0.06744041859898715,0.007767930587753653
1713449322165504500,7.34450439453125,-0.007080313649773597,-0.08448268401576206,-0.002389598550274968
1713449322175577300,7.354577392578125,0.03238192816674709,-0.07385585686555132,-0.0007001841586083173
1713449322185651500,7.3646513671875,0.02443944472968578,-0.07127963143568486,0.0198894532751292
1713449322195724500,7.374724609375,-0.017333412116765975,-0.07175004369271919,0.03984269250147045
1713449322205798400,7.38479833984375,-0.008222469422221183,-0.08468867318294943,-0.009841668121889233
1713449322215871500,7.39487158203125,0.02547229490876198,-0.07172763093151152,0.015392945573478936
1713449322225945600,7.404945556640625,0.024757424637675284,-0.06960793536379933,0.03249722510948777
1713449322236018400,7.415018310546875,0.007721534162759781,-0.08291771798767149,0.023183453319221732
1713449322246092500,7.425092529296875,-0.019342413851618764,-0.07944540223460644,0.03632613574787974
1713449322256166400,7.43516650390625,-0.0007499415844678879,-0.09410711092408745,0.02467376494221389
1713449322266239500,7.445239501953125,0.0289133752733469,-0.07443504499299451,0.042358036323264237
1713449322276313600,7.455313720703125,0.04182604833841324,-0.07717468082364648,0.02375043955221772
1713449322286386400,7.465386474609375,0.009992986226081848,-0.07526364130424334,0.02522657651938498
1713449322296460300,7.475460205078125,-0.011688684228062629,-0.08976495353393256,0.00010389876589179038
1713449322306533600,7.48553369140625,0.006579962912201881,-0.08209525915626437,0.000016658873856067655
1713449322316607500,7.495607421875,0.04655015425086021,-0.078634962634556,-0.0035693829193711277
1713449322326680300,7.505680419921875,0.03623451194167137,-0.0844368173137307,0.011040157191455364
1713449322336754700,7.515754638671875,0.012139350605010986,-0.08586557147521526,0.0109067400701344
1713449322346827500,7.52582763671875,0.013606500548124312,-0.07961241109827533,-0.00321092487052083
1713449322356901400,7.5359013671875,0.005350713378190994,-0.08232263817135244,0.014807546900957822
1713449322366975500,7.5459755859375,0.01071136362850666,-0.07630542370844631,-0.0011439093381166458
1713449322377048600,7.556048583984375,0.017117723539471625,-0.07575633845832198,-0.0055697629563510416
1713449322387122400,7.566122314453125,0.010679214924573898,-0.07804183731330558,0.016597279861941934
1713449322397195500,7.576195556640625,-0.00789104551076889,-0.09288158771712332,0.032684125983715055
1713449322407269400,7.586269287109375,0.0049801265001296995,-0.07889730336517095,0.028912644620984793
1713449322417342500,7.596342529296875,0.018923311656713484,-0.07919279744671658,0.013733414863422512
1713449322427416600,7.60641650390625,0.02103051306903362,-0.08123023982476442,0.009306611397117377
1713449322437489400,7.616489501953125,0.031055063477158546,-0.07367189686708152,0.003915712139010429
1713449322447563500,7.6265634765625,0.012317045259475707,-0.07529657545946539,0.03049552989825606
1713449322457636400,7.63663623046875,-0.01133095683157444,-0.07433361217882484,0.02783478625640273
1713449322467710500,7.64671044921875,0.0036252047598361965,-0.06597686711875722,0.0007490648016333579
1713449322477784300,7.656784423828125,0.02695931859612465,-0.0730338546918705,0.020209186748787758
1713449322487857700,7.666857666015625,0.026205285358428955,-0.07332750387620181,-0.0044815293282270425
1713449322497931500,7.676931640625,0.0035901334464550016,-0.08326698808306827,0.014049202814325689
1713449322508004400,7.68700439453125,0.0062777650952339165,-0.0817538983726874,0.016610650800168512
1713449322518078500,7.697078369140625,0.022864158236980438,-0.07058686339855194,0.01362052907347679
1713449322528151600,7.707151611328125,0.02646422855556011,-0.07899493678705766,0.015030615067109464
1713449322538225400,7.717225341796875,0.012849544700980186,-0.07961789099099115,0.012770122789219022
1713449322548298200,7.72729833984375,-0.008273322826623917,-0.08136632382720708,0.004851823945343494
1713449322558372600,7.73737255859375,-0.00795242030918598,-0.06199355136994272,0.022322306445240973
1713449322568445400,7.747445556640625,-0.047449733439087864,-0.061914513050671666,0.013226999711245298
1713449322578519600,7.75751953125,-0.0002986906856298446,-0.07760806727223098,0.01696530945673585
1713449322588593400,7.767593505859375,0.06036532911360264,-0.07365403241682797,0.02216740814447403
1713449322598666500,7.77766650390625,0.02794131537079811,-0.06817236786903813,0.009321955096721648
1713449322608740600,7.78774072265625,-0.029961423021554946,-0.08077540872935206,0.028497487948834895
1713449322618813400,7.7978134765625,-0.003448679149150848,-0.09036430766656994,-0.00047448564395308494
1713449322628887300,7.80788720703125,0.04986497788727283,-0.07099193706810474,0.02732267201580107
1713449322638960400,7.81796044921875,0.04138707239925861,-0.07985869574323295,0.020022358939796685
1713449322649034500,7.828034423828125,0.011033435189723969,-0.08283551959693432,0.013699074202403426
1713449322659107300,7.838107421875,-0.024575638329982757,-0.0737182932920754,0.0267800895716995
1713449322669181700,7.848181640625,-0.009910568639636038,-0.09612173868212848,0.0295898132301867
1713449322679255600,7.858255615234375,0.05656593683063984,-0.08184301969455554,-0.009433379581943154
1713449322689328400,7.868328369140625,0.02173778455555439,-0.08201832146253436,0.010163082095980644
1713449322699402500,7.878402587890625,-0.002209492743015289,-0.06697462771814316,0.021691315065324304
1713449322709475600,7.8884755859375,-0.009984218397736548,-0.0676000661401078,0.018051497258245945
1713449322719549400,7.898549560546875,0.014849778607487677,-0.0857160434693098,0.008224149922654033
1713449322729622300,7.908622314453125,0.03863923499584198,-0.07407019373597577,-0.008204203113168478
1713449322739696400,7.9186962890625,0.025874445968866348,-0.06928511488391086,0.007259104282781481
1713449322749769500,7.92876953125,0.001169043779373169,-0.063188971699588,0.012577888152748346
1713449322759844000,7.938843994140625,-0.005724222865700721,-0.06422843428254127,0.023407325202971695
1713449322769917200,7.948917236328125,0.013722820404171943,-0.06861481440691276,0.009947685779631137
1713449322779991000,7.958990966796875,0.02436287236213684,-0.07389748578388243,0.0018425591267645358
1713449322790065200,7.969065185546875,0.023184476232528686,-0.08678120674910024,0.016161518793180583
1713449322800138200,7.97913818359375,-0.004342997640371322,-0.08166033833771943,0.039598435416817665
1713449322810212000,7.989212158203125,-0.004776128360629081,-0.08126227893084287,0.015259090060740709
1713449322820285200,7.99928515625,0.016005962905287743,-0.07830224181516096,0.01137267708145082
1713449322830359300,8.009359375,0.03482815227508545,-0.08833813560120761,0.006397738213092088
1713449322840432000,8.01943212890625,0.04678922370374203,-0.07791963570574298,0.006042275838926434
1713449322850506000,8.029506103515626,-0.006204699859023094,-0.07830014118961989,0.014141045816242695
1713449322860579300,8.039579345703125,-0.016544892087578773,-0.062473078515194354,-0.003260536165907979
1713449322870653200,8.049653076171875,-0.015024550652503967,-0.07186903042988851,0.01220269816480577
1713449322880727000,8.05972705078125,-0.0021235680252313614,-0.070600745793432,0.0012262538593262433
1713449322890800000,8.069800048828125,0.0007604629784822463,-0.08418695247219875,0.0273512405231595
1713449322900874200,8.079874267578125,0.05589782831072807,-0.0819213638940826,0.005939326921105385
1713449322910947000,8.089947021484376,0.0009065934509038925,-0.08433195043345913,0.02069141730777919
1713449322921021200,8.100021240234375,-0.0343424145847559,-0.07785807824423537,0.008899564966186881
1713449322931094300,8.11009423828125,0.028721652093529698,-0.10506028395183384,0.00026120821945369244
1713449322941168000,8.120168212890626,0.03734334996640682,-0.08737564724460244,0.0034156536623835563
1713449322951241200,8.1302412109375,0.04382803581058979,-0.09147340141963213,0.03221504716724157
1713449322961315000,8.140315185546875,-0.005095277312397957,-0.0713224841967225,0.027992461036145687
1713449322971388200,8.15038818359375,-0.0018318916022777557,-0.07504143165461719,0.00892170373275876
1713449322981462300,8.160462158203124,0.03028349458277225,-0.08661737622320652,0.02121770620420575
1713449322991536000,8.1705361328125,0.027843700215220448,-0.04857236252715811,0.01812127455882728
1713449323001609000,8.18060888671875,0.023618775996565818,-0.06698814478684216,0.007860650372505187
1713449323011683300,8.190683349609374,-0.02878653402328491,-0.08346895866226405,0.00476180757433176
1713449323021756200,8.200756103515625,-0.054497313863039014,-0.08116400618813932,-0.006766133134067058
1713449323031830000,8.210830078125,-0.0011766425639390945,-0.07211922406498342,0.003237374486029148
1713449323041903400,8.2209033203125,0.05170972897112369,-0.08630275731608271,0.006894508754089475
1713449323051977200,8.230977294921875,0.04429156166911125,-0.08365213320944458,0.008022124544531106
1713449323062050000,8.241050048828125,0.002103109759092331,-0.09072382516134529,0.023940701427310702
1713449323072124200,8.251124267578126,0.002819733595848083,-0.07188472118936479,0.02627265150621533
1713449323082198000,8.261197998046875,0.03330255014300346,-0.06058388550141826,0.005943053248152136
1713449323092271000,8.27127099609375,0.03429214570224285,-0.05822839015014469,-0.013132672491297124
1713449323102345200,8.28134521484375,-0.00017418752312660217,-0.05947654531402513,-0.012362784097343682
1713449323112418000,8.29141796875,-0.010228548547625541,-0.06943995838575065,0.011225596760958433
1713449323122492200,8.3014921875,-0.011280687949061393,-0.07942450557705015,0.018165990483388305
1713449323132565200,8.311565185546876,0.010905424895882606,-0.07923617993071674,0.02448810617700219
1713449323142639000,8.32163916015625,0.026375965750217435,-0.09593688363451511,0.04552724094390869
1713449323152712200,8.331712158203125,0.023704700714349745,-0.09226721867844462,0.026175986198708413
1713449323162786300,8.341786376953126,0.044507250246405596,-0.08984791910964995,0.02303235441073775
1713449323172859100,8.351859130859374,0.028049451920390128,-0.07312635528091341,0.01074701946377754
1713449323182933000,8.36193310546875,-0.011009469792246818,-0.06745987221812828,0.0046473143491894
1713449323193007000,8.372007080078125,-0.012193126618862151,-0.07658310813866555,0.0036379911761730906
1713449323203080200,8.382080078125,0.01684475181698799,-0.06770513394977896,-0.001701250959932804
1713449323213154000,8.392154052734375,0.03540741346776485,-0.07925828216467053,0.0127301561050117
1713449323223227100,8.40222705078125,0.001432078629732132,-0.0759900741489604,0.004990867089852691
1713449323233301200,8.41230126953125,0.00708498982489109,-0.07444141993485391,0.005979074409604072
1713449323243374000,8.4223740234375,0.028452772024273872,-0.09976926487162709,0.007132628358900547
1713449323253448200,8.4324482421875,0.03604454232752323,-0.07250678034415468,0.008055369227007031
1713449323263521300,8.442521240234376,0.0215063138872385,-0.08116623467784374,-0.01003770215064287
1713449323273595100,8.45259521484375,-0.008444587740302085,-0.06947378759011626,0.008379121288657188
1713449323283669200,8.462669189453125,-0.010249591335654258,-0.07972442010538652,-0.007290814595296979
1713449323293742000,8.4727421875,0.013842647391557692,-0.09438649412104859,0.0034778321783989668
1713449323303816200,8.482816162109375,0.03645604573786258,-0.09672346743494271,0.004839402855187654
1713449323313889000,8.492888916015625,0.00490296961069107,-0.08735984688727184,0.023687091992422936
1713449323323963100,8.502963134765626,0.0019026187509298324,-0.0754810286482796,0.02660714415758848
1713449323334036200,8.5130361328125,0.014160627299547195,-0.07928126118145883,0.0014797902289777993
1713449323344110300,8.5231103515625,0.016993220376968383,-0.069800864120014,0.016570172659307717
1713449323354183200,8.53318310546875,0.0364466933876276,-0.08098563568023964,0.009580167641490698
1713449323364257000,8.543257080078124,0.007985738056898117,-0.072676017697528,0.01614442152790725
1713449323374330000,8.553330078125,-0.01088905828297138,-0.0709186891688034,0.005669204742833972
1713449323384404200,8.563404296875,0.004943301621079445,-0.06381857484001666,0.008892112312093376
1713449323394478000,8.57347802734375,0.02559855163693428,-0.0783420441025868,0.016456483151763675
1713449323404551000,8.583551025390625,0.0392132354915142,-0.09027564300242812,0.006918912542983889
1713449323414625300,8.593625244140625,0.03142038965821266,-0.07572188819944858,0.007781447656452656
1713449323424698000,8.603697998046876,0.0035579847425222396,-0.06117511112652719,0.017446882428601384
1713449323434772200,8.613772216796875,-0.004839256724715232,-0.08770845939554274,0.015949994934350252
1713449323444845300,8.62384521484375,0.018947277054190633,-0.09947594448085874,0.013621917312964795
1713449323454919200,8.633919189453126,0.01521393574476242,-0.07577982893176376,0.01150850535556674
1713449323464993300,8.6439931640625,0.035113983479142186,-0.08286551287639886,-0.0032328444413840768
1713449323475066000,8.654066162109375,0.021338556104898453,-0.07881064799502492,0.01978219350837171
1713449323485140000,8.664139892578126,-0.0015729484051465988,-0.07587017409633845,0.005564502259343862
1713449323495213000,8.674213134765624,-0.01732230620086193,-0.07334350516293198,0.0035042817939072847
1713449323505287200,8.684287109375,0.03577332417070865,-0.08090648776311427,-0.0025062106672674414
1713449323515360000,8.694360107421875,0.0493652116715908,-0.06573982522618026,-0.0104895375713706
1713449323525434400,8.704434326171874,0.008307225096225739,-0.06122033850774169,-0.0031393209390342233
1713449323535507200,8.714507080078125,-0.027951836764812468,-0.06707107382994144,-0.01717054970525205
1713449323545581000,8.7245810546875,-0.011653028392791748,-0.08322795298062265,-0.017075857159122822
1713449323555654100,8.734654052734374,0.018436989444494248,-0.0842888602104038,-0.004757131399214267
1713449323565728300,8.744728271484375,0.03461713987290859,-0.08198600836182013,-0.011906053305789827
1713449323575802000,8.754802001953125,0.012619827598333359,-0.0893723009545356,0.007136281620711088
1713449323585875000,8.764875,-0.018528174859285353,-0.07655247553838417,0.016142083440348506
1713449323595949000,8.774948974609375,-0.01452595348060131,-0.09109808356752619,0.04311879156269133
1713449323606022100,8.785022216796875,0.02033084036707878,-0.07489968509636818,0.048468993484228846
1713449323616096300,8.79509619140625,0.037385435542464256,-0.06459270101767033,0.008126973158493637
1713449323626169000,8.805169189453125,0.009223755419254303,-0.06393208168447018,0.025120558861643074
1713449323636243200,8.8152431640625,-0.020433716219663618,-0.07643569902461021,0.01714578059017658
1713449323646316000,8.82531591796875,0.011862287229299544,-0.08934428043644875,0.006738368344306946
1713449323656390100,8.83539013671875,0.0389127912402153,-0.08222812828831375,0.01270969783887267
1713449323666464000,8.845464111328125,0.020345453414320945,-0.06780415561115369,0.00903897343687713
1713449323676537000,8.855537109375,-0.00016834230422973633,-0.062087147937528786,0.03335851811394095
1713449323686611200,8.865611083984374,-0.01035363623201847,-0.066727119230479,0.011293109039217233
1713449323696684000,8.87568408203125,0.0036976854741573332,-0.07645129845254123,0.012161197110638022
1713449323706758100,8.885758056640626,0.007756020954251289,-0.0747714190742001,0.01168247368298471
1713449323716831200,8.895831298828124,0.014804185900092123,-0.07729715642584488,0.010211159021407365
1713449323726905000,8.905905029296875,-0.0022357962280511855,-0.08611625830065459,0.01965440241023898
1713449323736978200,8.915978271484375,-0.005512041419744491,-0.07860204674564301,0.007101794829219579
1713449323747052300,8.92605224609375,0.0067787003546953195,-0.08741977864727378,0.013865736006200313
1713449323757124000,8.9361240234375,0.008759060516953467,-0.08005666600074618,0.016117314325273035
1713449323767198200,8.9461982421875,0.0055085342884063715,-0.08038513077013194,-0.0002547054134309292
1713449323777272300,8.956272216796876,0.008837970972061156,-0.07586473073624074,-0.0028110388327389955
1713449323787345200,8.96634521484375,-0.010743512332439422,-0.0882739112585783,0.023027239844202994
1713449323797419000,8.9764189453125,0.0012836100697517395,-0.09404131567887962,-0.004407002787292003
1713449323807492400,8.986492431640626,0.016753566402196884,-0.09037546838140115,0.011401757045462728
1713449323817566200,8.996566162109374,0.028039515048265455,-0.07610891475565731,0.00668283876478672
1713449323827639000,9.00663916015625,0.030786183407902717,-0.07373509829640389,0.002210077264904976
1713449323837713200,9.016713134765626,0.021695698979496955,-0.08044862446039915,0.0041685178562998765
1713449323847786200,9.0267861328125,-0.0002864157259464264,-0.0693735055534169,0.0005809416931122541
1713449323857860000,9.036860107421875,0.0239636439114809,-0.06588511544838548,0.0004491320069879293
1713449323867934200,9.046934326171876,0.017389526218175886,-0.047247397533711044,-0.021989494294300672
1713449323878007300,9.05700732421875,0.0011053308933973312,-0.08112856954857707,-0.004914733113721013
1713449323888081200,9.0670810546875,-0.020398644906282425,-0.0830811649210751,0.0008360854979604482
1713449323898154200,9.077154296875,-0.01346504625082016,-0.08657187484735622,0.025821912064030766
1713449323908228000,9.08722802734375,0.02610825472474098,-0.09880889540687203,0.016416370337083933
1713449323918301200,9.09730126953125,0.04189619096517563,-0.09126505589857697,0.020896146099641917
1713449323928375300,9.107375244140625,0.03940554319322109,-0.08634964693142101,0.018269377792626617
1713449323938448100,9.1174482421875,0.024891280150413513,-0.09478046187469735,0.017875044712796807
1713449323948522000,9.12752197265625,0.012602876463532448,-0.06674900226872414,0.018189152163267136
1713449323958596400,9.137596435546875,0.00719955611526966,-0.06389867260521277,-0.006640387862548232
1713449323968669200,9.147669189453126,0.013793547552824019,-0.05750789385586977,-0.0010328501790761947
1713449323978743000,9.157742919921875,0.01770166090726852,-0.06325224619414657,0.007365268070995807
1713449323988816100,9.167816162109375,-0.011612696382403373,-0.0716039680192247,-0.0031119214754551645
1713449323998890200,9.17789013671875,-0.0032218846559524533,-0.06320530177988111,0.0033536212768405676
1713449324008963000,9.187963134765624,0.0075718965590000145,-0.08051893148394301,-0.0016040011305361985
1713449324019037200,9.198037109375,0.03557049507498741,-0.09084376174658536,0.002422697102278471
1713449324029110300,9.2081103515625,0.032583588218688966,-0.0744582614718005,0.0041552199833095075
1713449324039184100,9.21818408203125,0.010148469048738479,-0.07176010842900722,0.013647855471819638
1713449324049258200,9.22825830078125,-0.004343582162261009,-0.06657130761425942,0.009574614683538674
1713449324059331000,9.2383310546875,0.0010755202770233153,-0.08465937402322887,0.0024492928482592103
1713449324069405200,9.2484052734375,0.013086276066303252,-0.07064297749996185,0.0070693538643419734
1713449324079478000,9.25847802734375,0.01835807898938656,-0.07566716233752667,0.014556129423156379
1713449324089552100,9.26855224609375,-0.013917466193437575,-0.07594064551666378,0.00985460066869855
1713449324099625200,9.278625244140626,-0.0009048398852348328,-0.07255933251529932,0.016623071890324352
1713449324109699300,9.28869921875,0.005389876344799995,-0.0866112022107467,0.014444851068407297
1713449324119772200,9.298772216796875,0.013791209465265273,-0.0658886225797236,0.013981032948940991
1713449324129846000,9.308845947265626,0.016341478469967842,-0.06555478751547635,0.0029983780983835456
1713449324139919000,9.318919189453124,0.0027215339183807373,-0.08259847770435735,0.02546725340746343
1713449324149993200,9.3289931640625,0.0009060089290142059,-0.08502079121414571,0.006951207377389073
1713449324160067000,9.339067138671876,0.025424364113807676,-0.06275333849499001,-0.002134016354009509
1713449324170140000,9.349139892578124,0.041110593545436856,-0.07289934159200638,-0.002376812133938074
1713449324180214300,9.35921435546875,0.019850947895646093,-0.06754829942025244,-0.003925649011135101
1713449324190287000,9.369287109375,-0.0008300210833549499,-0.07618815400432795,0.00036371874585747714
1713449324200361200,9.379361328125,-0.017767711880803106,-0.07746668604016303,0.003431874144822359
1713449324210434300,9.389434326171875,-0.012547346884012222,-0.08932248872974886,-0.00881619753167033
1713449324220508200,9.399508056640625,0.02112637465894222,-0.07798437150502577,0.000723418903723359
1713449324230581000,9.4095810546875,0.010061959809064864,-0.07570387761872262,-0.0059157999150455
1713449324240655000,9.419655029296875,-0.0038531682968139646,-0.07748436782732605,0.0009528437454253435
1713449324250729000,9.42972900390625,-0.017473697370290756,-0.07470896656354889,0.014464505616948007
1713449324260802000,9.439802001953124,0.01920680477321148,-0.07196399697065353,0.006390139428526163
1713449324270876200,9.449876220703125,0.027156886994838713,-0.076550338380225,0.016120748391374944
1713449324280949000,9.459948974609375,0.025070728370547295,-0.08398750264365226,0.013696370788663625
1713449324291023400,9.4700234375,0.021928338691592216,-0.07726266963435337,-0.0006629208881407976
1713449324301096200,9.48009619140625,0.012176760005950927,-0.07669705337453633,0.024812735021486877
1713449324311170000,9.490170166015625,0.011848258703947066,-0.07428602844374253,0.021735373402759432
1713449324321243100,9.5002431640625,0.02142272725701332,-0.06788067317977547,0.002752440513297915
1713449324331317200,9.510317138671875,0.02891162170767784,-0.06078267774283885,0.004954992058873176
1713449324341391000,9.52039111328125,0.00914192235469818,-0.07468571355212479,-0.006724339818954468
1713449324351464000,9.5304638671875,0.01840016456544399,-0.07626706445943564,-0.006428571742773056
1713449324361538000,9.5405380859375,0.014938625934720038,-0.0902944938333705,0.016174816666170953
1713449324371611100,9.550611083984375,0.021063830816745756,-0.08123188379257917,0.005018851075321435
1713449324381685200,9.560685302734376,0.03303776172697544,-0.07458455473259092,0.01712890252061188
1713449324391758000,9.570758056640624,-0.001076104798913002,-0.06882811009772122,0.016691314820945262
1713449324401832200,9.580832275390625,-0.0018266309052705765,-0.06408803943116217,0.011481690413877367
1713449324411905000,9.590905029296875,0.0004249474138021469,-0.07606852794634178,0.004570888112112879
1713449324421979100,9.600979248046874,0.012425766330957412,-0.0839188943868503,0.01630509198233485
1713449324432053000,9.611052978515625,0.00886485897898674,-0.06752433402277529,0.01588935078829527
1713449324442126000,9.6211259765625,0.005122749841213226,-0.07571049002259969,-0.003259586317837238
1713449324452200200,9.6312001953125,0.031467151409387585,-0.0970028323655948,0.008501578624546527
1713449324462273000,9.64127294921875,0.029254736056923865,-0.057376522561162706,-0.008993892186135053
1713449324472347100,9.65134716796875,-0.002913257098197937,-0.06925561479479074,0.014323343580588697
1713449324482420200,9.661420166015626,0.008168693408370018,-0.08930025863163173,-0.009963614001125097
1713449324492494000,9.671494140625,0.042892216265201566,-0.07020142601123079,-0.0070207654822617765
1713449324502567200,9.681567138671875,0.026722002708911893,-0.07593772290721536,0.001265636021643877
1713449324512641300,9.691641357421876,-0.013093290328979492,-0.07951422968711704,0.008691694369167089
1713449324522714000,9.701714111328124,-0.01627835010588169,-0.07241659957636147,0.012749737588316202
1713449324532788000,9.7117880859375,0.004348842859268188,-0.0849447851021774,0.012158055305480956
1713449324542862000,9.721862060546876,0.026946459114551544,-0.08744073010375723,-0.003854191210120916
1713449324552935200,9.73193505859375,0.01768003359735012,-0.0798353148676455,0.0016163491554558277
1713449324563009000,9.742009033203125,-0.009413140511512756,-0.0812263491009362,0.0016992781985551118
1713449324573082000,9.75208203125,-0.0011725509107112884,-0.0874199978429824,-0.012595423809438943
1713449324583156200,9.76215625,0.03490647820830345,-0.08062156987451016,-0.0023898177459836007
1713449324593229000,9.77222900390625,0.03266308319568634,-0.07073584341518581,0.009269640387594699
1713449324603303200,9.78230322265625,-0.013608254113793372,-0.0668398588899523,0.00323401348516345
1713449324613376300,9.792376220703124,-0.005548866298794746,-0.07564213749412446,-0.0024586451984941957
1713449324623450000,9.8024501953125,0.01554068348109722,-0.06564882247447967,-0.014647095642238855
1713449324633524200,9.812524169921875,0.01930383540689945,-0.07562498542992398,0.0002772825714200735
1713449324643597000,9.82259716796875,0.00046703298985958095,-0.05984386252276599,0.01418415430560708
1713449324653671000,9.8326708984375,-0.004458732974529266,-0.08181470691552385,0.007198387071490287
1713449324663744300,9.842744140625,0.0034691374152898786,-0.08032171014510095,0.02278437099903822
1713449324673818000,9.852818115234374,0.013946107766032218,-0.0744939903723076,0.003489157290011644
1713449324683891000,9.862890869140625,0.031768764704465866,-0.08058755800705403,0.014749094711989163
1713449324693965300,9.87296533203125,0.02697100903391838,-0.08127152168322355,-0.00047602001391351223
1713449324704038100,9.8830380859375,0.012570143237709998,-0.08371613835636525,-0.009922624403610825
1713449324714112000,9.893112060546875,0.004187514817714691,-0.08055069659538566,-0.013795739509910344
1713449324724186000,9.90318603515625,0.02887245874106884,-0.06782196526248008,0.007519874110817909
1713449324734259200,9.91325927734375,0.009464578437805175,-0.0729038533703424,-0.004669380050525069
1713449324744333000,9.9233330078125,0.0042658407509326935,-0.08055347307436168,0.006986205625534057
1713449324754406100,9.93340625,0.0037000235617160797,-0.07794884353391826,0.011192717404663563
1713449324764480000,9.94347998046875,0.006231587865948677,-0.06540173411192372,0.011724413128569722
1713449324774553000,9.953552978515624,0.021966332614421845,-0.08809654539767653,-0.00982091759480536
1713449324784627000,9.963626953125,0.029039047479629515,-0.07664773434009403,-0.0059223757863044735
1713449324794700000,9.973699951171875,0.012274375161528586,-0.06458013379704207,0.00520122190490365
1713449324804774100,9.983774169921874,0.001793313157558441,-0.06887626008838414,-0.010487491744756699
1713449324814848000,9.993847900390625,0.014364625439047813,-0.0828576948961243,-0.007374912682175636
1713449324824920800,10.0039208984375,0.006294716230034828,-0.0745514927132055,0.001531155090034008
1713449324834995000,10.013994873046874,0.02052256354689598,-0.10195979718584566,0.017468582803756
1713449324845068000,10.024068115234375,0.02621463770866394,-0.0842895543301478,0.009662146836519241
1713449324855142000,10.034141845703125,0.01960194157063961,-0.07062533224541694,0.02173690777271986
1713449324865215000,10.044215087890626,0.004908230307698249,-0.08837145334891974,0.00598155862763524
1713449324875289000,10.0542890625,0.00715162532031536,-0.06725256787668914,-0.019573007737100124
1713449324885362000,10.06436181640625,0.00970657050013542,-0.06216930979564786,-0.008891381659731268
1713449324895436000,10.07443603515625,0.01542261005938053,-0.07648410474359989,-0.004182838642597198
1713449324905510000,10.084510009765625,0.004102759143710136,-0.07651358656641095,-0.003263385710120201
1713449324915583000,10.0945830078125,-0.022299510091543195,-0.07741639889134094,-0.0058968760188668964
1713449324925657000,10.104656982421876,0.0033668460845947264,-0.07967448001643643,-0.00938340296037495
1713449324935730000,10.11472998046875,0.01672317126393318,-0.07622413863316178,0.02201557858362794
1713449324945803800,10.1248037109375,0.036650691527128215,-0.06829111714418977,0.011775339598208666
1713449324955877000,10.134877197265626,0.027532734569907187,-0.06958459102082998,-0.002952420064806938
1713449324965951000,10.144950927734374,0.01031271969974041,-0.07759148146361113,0.00119666243866086
1713449324976023800,10.15502392578125,0.005810147583484649,-0.07132860341025515,0.009693784083798528
1713449324986098200,10.16509814453125,0.030040333476662635,-0.06247848534267395,0.008432751172035933
1713449324996171000,10.1751708984375,0.03602233049571514,-0.07174385141395032,-0.010217881023138762
1713449325006244900,10.185244873046875,-0.00003507131338119507,-0.0732427664685063,0.01457929110303521
1713449325016319000,10.195319091796875,0.00011924246549606323,-0.07370448396243155,0.019928250915557146
1713449325026392000,10.20539208984375,0.006547229686379432,-0.08211244775308296,-0.005000511701032519
1713449325036466000,10.2154658203125,0.007767126870155334,-0.08206906526908278,0.0028792086981236933
1713449325046539000,10.2255390625,0.011097732597589493,-0.08023381266593933,0.0033022564157843587
1713449325056612900,10.23561279296875,0.014281038808822632,-0.08141728682946413,0.012416560111194849
1713449325066686000,10.24568603515625,0.0005418517917394638,-0.0740301722528413,0.00023475860394537448
1713449325076760000,10.255760009765625,-0.002881692916154861,-0.07106376019529997,0.0018836217895150183
1713449325086834000,10.265833984375,0.01617196712195873,-0.07260419457033276,0.0006083411566913128
1713449325096907000,10.275906982421875,0.018148235630989072,-0.07333974230326712,0.000024549919366836548
1713449325106981000,10.285981201171875,0.020703765332698822,-0.07165292172748595,-0.004419277746975422
1713449325117054000,10.296053955078126,0.015486322945356368,-0.0772058431468904,0.003972703023254871
1713449325127127800,10.3061279296875,0.009070610684156417,-0.07864204996246844,-0.004568842285498976
1713449325137201200,10.316201171875,0.01013794765472412,-0.06502946673342958,0.026118556923046706
1713449325147275000,10.32627490234375,0.00850888514816761,-0.0672135693068616,0.005768354268372059
1713449325157347800,10.336347900390624,0.03143441818356514,-0.07492242665113881,0.0013335136260837317
1713449325167422000,10.346421875,0.012900982627272605,-0.07088175469189882,0.005640928496420383
1713449325177495000,10.3564951171875,0.012440379378199577,-0.07260412150509656,0.005876636948436498
1713449325187569000,10.36656884765625,0.0049491468399763105,-0.07686649165730923,-0.006155453889816999
1713449325197643000,10.37664306640625,0.024140754044055936,-0.072704093014542,0.00014693419001996516
1713449325207716000,10.386716064453125,0.020284078615903853,-0.0758766403697431,0.014706570744514464
1713449325217790000,10.3967900390625,0.006539630901813507,-0.07455320974625647,0.011260375813394785
1713449325227863000,10.406863037109375,-0.0100385789334774,-0.06607437267648056,-0.0035298546265810724
1713449325237937000,10.41693701171875,-0.0056575873702764505,-0.0748476991808042,-0.0019417817175388335
1713449325248010000,10.427010009765626,0.017875848430395126,-0.06768445648793131,0.012541209404170512
1713449325258084000,10.437083984375,0.014178747478127479,-0.07376209590118378,0.010099588405713438
1713449325268158000,10.447157958984375,0.014176409390568733,-0.06069149232804775,0.012801686971262096
1713449325278230800,10.457230712890626,0.009409633380174637,-0.06199183433689177,-0.006490092671662569
1713449325288305200,10.46730517578125,0.0018184475988149641,-0.07568130046073347,-0.004266644468531013
1713449325298378000,10.4773779296875,0.014435937109589576,-0.067712769266963,0.014183862044662236
1713449325308451800,10.487451904296876,0.010866846451163292,-0.0689414342790842,-0.002007686560600996
1713449325318525200,10.497525146484374,0.013886486533284186,-0.08193288993509486,0.0012608867812901735
1713449325328599000,10.50759912109375,0.023780104038119313,-0.07340827749483286,0.002335018818825483
1713449325338671900,10.517671875,0.013786533290147781,-0.07307126409281045,0.0004155219983309507
1713449325348746000,10.52774609375,0.010227964025735855,-0.0685465532099828,0.013180091829597949
1713449325358819000,10.537819091796875,-0.004556932651996613,-0.08114457083530724,-0.0034923721604049203
1713449325368893000,10.547892822265625,0.02179039152562618,-0.08258172749895602,0.0066064855929464095
1713449325378967000,10.557967041015624,0.039000469523668285,-0.0701833058326505,0.0006127981361001729
1713449325389039900,10.568039794921875,0.03347790670990944,-0.07175623597148806,0.005021773684769869
1713449325399114000,10.578114013671875,0.007613397613167762,-0.06735884126275778,0.004820259763300419
1713449325409187000,10.58818701171875,-0.010462357303500175,-0.06188316806433722,-0.019684286091849208
1713449325419261000,10.598260986328125,0.008108487653732298,-0.08934979686178267,0.004562485609948635
1713449325429334000,10.608333984375,0.06425123063623905,-0.0820907656442374,0.003884805544093251
1713449325439408000,10.618408203125,0.013979425513744353,-0.05341229510530829,0.004538666342943906
1713449325449481000,10.62848095703125,-0.01522095000743866,-0.06991037064278498,0.02235503967106342
1713449325459554800,10.638554931640625,0.018144728499650955,-0.08309501078333704,-0.008417699733376503
1713449325469629000,10.64862890625,0.04700900393426418,-0.07838918944625184,0.004152224308624863
1713449325479702000,10.658701904296874,0.008676058408617973,-0.06348978127706796,0.030982436632364985
1713449325489775900,10.66877587890625,-0.0004997662156820296,-0.08432654360597952,0.018821824043616653
1713449325499849000,10.678848876953126,-0.00799216779768467,-0.07717367617664858,0.011432736705616117
1713449325509923000,10.688923095703124,0.00684533585011959,-0.08884825881412252,0.0009149959530681372
1713449325519996000,10.698995849609375,0.020789105528593064,-0.07548848130237311,0.006987228538841009
1713449325530070000,10.709070068359376,0.012902151671051978,-0.06548964985739439,-0.019110943183302878
1713449325540143000,10.71914306640625,-0.04348901311457157,-0.07310847256435081,-0.00031732232086360455
1713449325550217000,10.729217041015625,-0.0006692775636911391,-0.06423411510465667,-0.006655000909790396
1713449325560291000,10.739291015625,0.046049218991398806,-0.07044098865445703,0.0007253916651010513
1713449325570364000,10.749364013671874,0.0164478614538908,-0.07111965510100125,-0.00951017114520073
1713449325580438000,10.75943798828125,-0.002681201907992363,-0.05475362671166658,-0.003890139306336641
1713449325590511000,10.769510986328125,0.012754267632961272,-0.056426838887203484,0.002337137710675597
1713449325600585000,10.7795849609375,0.027445640808343885,-0.07901417121049016,0.005676657396927476
1713449325610658000,10.789657958984375,0.02492109076678753,-0.07261318159438669,0.010755348900705576
1713449325620732200,10.799732177734375,0.03181318836808204,-0.07540211819317191,-0.002018354085087776
1713449325630805000,10.809804931640626,0.012947744378447533,-0.06702665016632527,-0.007287818920612334
1713449325640878800,10.81987890625,-0.0007078560084104537,-0.08007668587546796,0.008401917642354964
1713449325650953000,10.829952880859375,0.0018166940331459044,-0.07362946423115209,0.0027280367244035004
1713449325661026000,10.840026123046876,0.020527239722013473,-0.06926588046047837,-0.019447920052707193
1713449325671100000,10.850099853515625,0.012750175979733467,-0.08350297052972018,0.0125667822368443
1713449325681173000,10.860173095703125,0.005722469300031662,-0.08217073554527014,0.0018764613963663578
1713449325691247000,10.8702470703125,-0.007585925084352493,-0.07081873592566698,0.006238894389569759
1713449325701320000,10.88031982421875,0.0027437457501888274,-0.07713270484544336,-0.0007248071432113647
1713449325711394000,10.89039404296875,0.0020171850413084028,-0.06604136545602232,0.005824541435018181
1713449325721467100,10.900467041015625,0.019551088166236876,-0.06212181739211082,0.018170666658505797
1713449325731541000,10.910541015625,0.014049568140506744,-0.07228122795997187,0.013388181622326373
1713449325741615000,10.920614990234375,0.007643208229541778,-0.07024444316904992,-0.012427812157571315
1713449325751688000,10.93068798828125,0.002116553762555122,-0.07483273907369002,0.004395385414734483
1713449325761761800,10.94076171875,0.018715806385874747,-0.08174195220656692,-0.00032908582389354704
1713449325771835000,10.9508349609375,0.05076747968494892,-0.07502433438934385,0.00020312135666608808
1713449325781909000,10.960908935546875,0.033275662136077876,-0.07305445908848196,-0.005596797093749046
1713449325791981800,10.97098193359375,0.010216273587942123,-0.07758938083807006,0.011277253882959484
1713449325802056000,10.981055908203125,-0.0002846621602773666,-0.0837164306173101,0.012063655020296573
1713449325812128800,10.991128662109375,0.022111294043064115,-0.08072481105327606,0.019912688020244238
1713449325822203000,11.001202880859376,0.044528877556324,-0.06629497489091009,-0.01248692193366587
1713449325832276700,11.01127685546875,0.01263151803612709,-0.0714250677883625,-0.0010524316623806954
1713449325842350000,11.02135009765625,-0.0010240823507308959,-0.06201565360389649,-0.007037497421354055
1713449325852424000,11.031423828125,-0.009118541479110717,-0.07096851965989917,-0.0030609219405800104
1713449325862496800,11.041496826171874,-0.009849778363108635,-0.07360325207766145,0.0030728315740823743
1713449325872571000,11.05157080078125,0.013950783941149712,-0.07431951058823615,0.01629069813080132
1713449325882644000,11.06164404296875,-0.001291208854317665,-0.07006331444848328,0.008175342344865203
1713449325892717800,11.0717177734375,0.020569325298070908,-0.07928011040398851,0.018952756946906447
1713449325902791000,11.081791015625,0.009804185655713081,-0.07535261649563908,0.007624649659544229
1713449325912865000,11.091864990234376,0.015796119546890256,-0.06295052330121398,0.013384455295279622
1713449325922939000,11.10193896484375,0.02806757209897041,-0.064887519245781,-0.0003967442326247692
1713449325933012000,11.112011962890625,0.02249064874947071,-0.07378291949350387,0.025190847618877885
1713449325943085800,11.1220859375,-0.005817161846160888,-0.07598386360388248,0.02525419517867267
1713449325953159000,11.132158935546874,0.005525485423207283,-0.06899645240195094,0.017852686750516295
1713449325963233000,11.14223291015625,0.0076028762191534035,-0.06348086731825024,0.008250453407689928
1713449325973305900,11.152305908203125,0.016118191108107565,-0.07221957916691898,-0.005691635770350694
1713449325983380000,11.1623798828125,0.009661562314629554,-0.06959715824145823,0.0019397358909249306
1713449325993452800,11.172452880859375,-0.009664484924077987,-0.054465621816832566,0.01347491005770862
1713449326003527000,11.18252685546875,-0.0014385083705186843,-0.07001463473485782,0.00043758769966661926
1713449326013600800,11.192600830078124,0.00317453838288784,-0.07181143675744533,-0.0020718378379940986
1713449326023673900,11.202673828125,0.014397358664870262,-0.06059117375873029,0.008503770581632852
1713449326033748000,11.212748046875,0.02741056949496269,-0.0683304627738893,-0.002709770415350795
1713449326043820800,11.22282080078125,-0.004932780227065086,-0.06891361469039693,-0.0010572539679706097
1713449326053895000,11.23289501953125,-0.0012087912678718567,-0.06342166621061042,0.011784326622262597
1713449326063968000,11.242968017578125,0.029141923332214353,-0.07078673335220664,0.004345481858402491
1713449326074041900,11.253041748046876,0.03198912945687771,-0.05857806210434064,-0.0034840427234768866
1713449326084114700,11.26311474609375,0.011788052949309348,-0.060078876855038106,-0.00006751227825880051
1713449326094189000,11.27318896484375,-0.005437222617864609,-0.09181867119334637,-0.0021956103481352326
1713449326104263000,11.283262939453126,-0.0006646013885736465,-0.0856060437561944,0.012262538593262434
1713449326114335700,11.293335693359374,0.009662731358408927,-0.0669846924544312,-0.02308086972758174
1713449326124409900,11.303409912109375,0.02073766760230064,-0.07024279920123518,-0.007267945176362991
1713449326134483000,11.31348291015625,0.030608488753437996,-0.07497013825038447,0.0038148821130394935
1713449326144557000,11.32355712890625,0.0008212532550096512,-0.08395029417211189,-0.0037627865996211767
1713449326154630000,11.3336298828125,-0.014753917017579077,-0.05564224611446261,-0.004711904017999768
1713449326164703700,11.343703857421875,-0.0008446341305971145,-0.05353975740987807,0.008365238893777131
1713449326174776800,11.35377685546875,0.02653963187932968,-0.07305427642539143,0.004454933582246304
1713449326184851000,11.363850830078125,0.02489011110663414,-0.07259486048640683,0.001913505471125245
1713449326194924800,11.3739248046875,0.021115268743038176,-0.057285958200879394,-0.005620397165045142
1713449326204998000,11.383997802734376,-0.011684592574834823,-0.06698408966623247,0.014941548544168471
1713449326215072000,11.394072021484375,0.006529694029688835,-0.06650103712333366,-0.002101429258659482
1713449326225144800,11.404144775390625,0.027030045744776725,-0.07298585083168,-0.0007731763295829296
1713449326235219000,11.414218994140626,0.03404840007424354,-0.05714969153534621,0.028080431580543515
1713449326245292000,11.4242919921875,-0.009339490753412246,-0.06106664578337222,0.01528320158869028
1713449326255366000,11.434365966796875,-0.04571311890482902,-0.060378243394102894,0.006513400482013821
1713449326265438700,11.444438720703126,0.004837503159046173,-0.07789389847628772,0.011495938134938478
1713449326275512800,11.454512939453124,0.06755845548808574,-0.06568184796124696,0.005333104656264185
1713449326285587000,11.4645869140625,0.05111819281876087,-0.05413193288305774,-0.0009961714304983615
1713449326295659800,11.47465966796875,-0.024775544816255567,-0.05833049881774932,0.005666866655275225
1713449326305734000,11.48473388671875,-0.007296002227067947,-0.08013095507966354,-0.004880684713646769
1713449326315807000,11.494806884765625,0.0353401934504509,-0.06775346660353243,-0.015885697526484728
1713449326325881000,11.504881103515626,0.039814123994112015,-0.06301971607990563,-0.006775120158120989
1713449326335954000,11.514953857421874,0.012854220876097678,-0.07403572521079331,-0.002955781065672636
1713449326346027800,11.52502783203125,-0.019345920982956885,-0.07461166193522513,0.00472805143520236
1713449326356100900,11.535100830078125,-0.012477788779139519,-0.060458377691917115,-0.009080255295336246
1713449326366175000,11.545175048828124,0.038381460842490195,-0.07619241005433723,-0.0012937661375850438
1713449326376248800,11.555248779296875,0.02910159132182598,-0.07275509254941716,-0.0032193273726850748
1713449326386321700,11.56532177734375,-0.0024970775127410886,-0.06628021571319549,-0.007059928448870777
1713449326396396000,11.57539599609375,0.001381225225329399,-0.07650971410889178,-0.00829772661551833
1713449326406468900,11.58546875,0.02530219903886318,-0.07181633212827146,-0.005887304472923278
1713449326416543000,11.59554296875,0.013024316745996474,-0.07045337321199477,-0.005528408032655715
1713449326426616000,11.605615966796876,0.018075754916667935,-0.05647219413258135,-0.006608677550032734
1713449326436690000,11.61568994140625,0.03840075006484985,-0.0749335508333519,-0.008832418014109134
1713449326446762800,11.6257626953125,0.024905893197655675,-0.06164956023786217,0.013672040065005421
1713449326456836900,11.6358369140625,0.014109189373254775,-0.06335691214501857,0.007235065820068121
1713449326466910700,11.64591064453125,0.01092354507446289,-0.07055964659806341,0.005775953052937984
1713449326476983800,11.65598388671875,0.005065466696023941,-0.07341697225794196,0.010873422322422265
1713449326487058000,11.666057861328126,0.005352466943860054,-0.08123623117413371,0.010056699112057685
1713449326497130800,11.676130859375,0.0014396774142980575,-0.06655035615777596,-0.005647139041498303
1713449326507205000,11.686205078125,0.0008259294301271438,-0.07899663555379957,-0.0010290507867932318
1713449326517278000,11.69627783203125,-0.0023287352085113525,-0.06079827717076987,0.01012815691307187
1713449326527351800,11.706351806640624,0.016235095486044883,-0.0696894396347925,-0.011058277370035648
1713449326537425000,11.7164248046875,0.01968377463519573,-0.07787316621551289,-0.00004763853400945663
1713449326547499000,11.7264990234375,0.012967618122696875,-0.0707368845948018,0.0069709349911659954
1713449326557572900,11.73657275390625,-0.0006114098966121674,-0.058354098889045414,0.006508651241660118
1713449326567645700,11.746645751953125,-0.007501169410347938,-0.07541453928332775,0.010429331816732883
1713449326577719800,11.7567197265625,0.007904489514231682,-0.06881654752409085,0.008066182881966233
1713449326587793000,11.76679296875,0.048019642281532285,-0.06734795454256236,-0.0054740474969148635
1713449326597866800,11.77686669921875,0.028870705175399778,-0.07316321669258177,-0.010004165207222103
1713449326607939800,11.78693994140625,-0.013349310916662216,-0.06508680467754602,-0.012962503556162118
1713449326618014000,11.797013916015626,-0.009485621225833893,-0.05629201526008546,0.003725304133445024
1713449326628086800,11.807086669921874,0.014743980145454406,-0.07315766373462974,-0.0003738017484545707
1713449326638161000,11.817160888671875,0.023702362626791,-0.06394791857441887,-0.0003716828566044569
1713449326648234800,11.82723486328125,0.03565758883655071,-0.06237036705939099,0.02012136233486235
1713449326658307800,11.837307861328124,0.006437339571118354,-0.07367129407888277,0.021196005829051137
1713449326668382000,11.8473818359375,0.0056529111951589585,-0.07508713395986706,-0.006351999375224113
1713449326678454800,11.857454833984375,0.0035077158600091934,-0.07115589545816182,-0.0062432783037424085
1713449326688529000,11.86752880859375,0.021760580909252165,-0.0647268487913534,0.005003434310480952
1713449326698602000,11.87760205078125,0.005908347260951996,-0.062460894887056195,-0.01734459109790623
1713449326708675800,11.88767578125,-0.006530278551578521,-0.057120246245153244,-0.02140066155567765
1713449326718749000,11.8977490234375,-0.0066845923304557795,-0.06362908014990389,-0.0008753215298056601
1713449326728823000,11.907822998046875,0.0014057751446962356,-0.07042034772522747,0.003665098378807306
1713449326738897000,11.91789697265625,0.014585574713349342,-0.07119644666425884,-0.01049041435420513
1713449326748969700,11.9279697265625,0.022990999487042425,-0.0686403324406594,-0.007985811122134328
1713449326759043800,11.9380439453125,0.0038438159465789793,-0.07555617624372243,0.01889905399829149
1713449326769118000,11.948117919921875,-0.006037526598572731,-0.07366402408787981,0.01730981204546988
1713449326779191800,11.95819189453125,0.005925298395752907,-0.06043380950624123,0.004523687969520688
1713449326789264600,11.9682646484375,0.02251987484395504,-0.05878454446187242,-0.0025322218913584947
1713449326799338800,11.9783388671875,0.023844985967874526,-0.07082735762353987,0.010622370170801877
1713449326809412600,11.98841259765625,0.01872691230177879,-0.07071264520268887,0.008458762396126985
1713449326819485700,11.998485595703125,-0.01482347512245178,-0.0741780928235501,0.00615552695505321
1713449326829559800,12.008559814453125,-0.006619125878810883,-0.07666943471524865,0.002618365804851055
1713449326839632600,12.018632568359376,0.010430793121457099,-0.0796341662723571,-0.003001958294957876
1713449326849706800,12.028706787109375,0.026299393382668495,-0.06818738277507945,-0.0015739713184535502
1713449326859779800,12.03877978515625,0.02182312475144863,-0.0692722371360287,0.004756985268741846
1713449326869853700,12.048853759765626,0.01585398721396923,-0.06534962033219635,-0.0013421353239566087
1713449326879926800,12.0589267578125,0.015244330883026121,-0.07330607749568298,0.005015343943983316
1713449326890001000,12.0690009765625,0.00642272652387619,-0.07948737821280956,0.003615194822475314
1713449326900073700,12.07907373046875,0.03906827406287193,-0.0723223088890314,-0.005262888964265584
1713449326910147600,12.089147705078124,0.017381927433609962,-0.05988255056533962,-0.0025160744741559026
1713449326920221700,12.0992216796875,0.006909633257985114,-0.06730736680384725,-0.0046641924187541
